exposure_file,instr_1,exp_reps,fct_file,instr_2,gather_file,gather_reps,instr_3,fReps,instr_4,Word,English,Flip,Path,Audio,left_img,word,right_img,correctans,correct_img,audio,Text,Wordbank,NegVSentence,VNegSentence,AffSentence,master_loop.thisRepN,master_loop.thisTrialN,master_loop.thisN,master_loop.thisIndex,exp_loop.thisRepN,exp_loop.thisTrialN,exp_loop.thisN,exp_loop.thisIndex,fct_loop.thisRepN,fct_loop.thisTrialN,fct_loop.thisN,fct_loop.thisIndex,trials.thisRepN,trials.thisTrialN,trials.thisN,trials.thisIndex,trials_2.thisRepN,trials_2.thisTrialN,trials_2.thisN,trials_2.thisIndex,trials_3.thisRepN,trials_3.thisTrialN,trials_3.thisN,trials_3.thisIndex,trials_4.thisRepN,trials_4.thisTrialN,trials_4.thisN,trials_4.thisIndex,gather_loop.thisRepN,gather_loop.thisTrialN,gather_loop.thisN,gather_loop.thisIndex,fb_yn.thisRepN,fb_yn.thisTrialN,fb_yn.thisN,fb_yn.thisIndex,text_instr_m.started,text_instr_m.stopped,key_resp_instr_m.keys,key_resp_instr_m.rt,key_resp_instr_m.started,key_resp_instr_m.stopped,text_instr_info.started,text_instr_info.stopped,key_resp_instr_info.keys,key_resp_instr_info.rt,key_resp_instr_info.started,key_resp_instr_info.stopped,text_instr1.started,text_instr1.stopped,key_resp_instr1.keys,key_resp_instr1.rt,key_resp_instr1.started,key_resp_instr1.stopped,exp_img.started,exp_img.stopped,exp_text.started,exp_text.stopped,key_resp_exp.keys,key_resp_exp.rt,key_resp_exp.started,key_resp_exp.stopped,sound_exp.started,sound_exp.stopped,text_instr2.started,text_instr2.stopped,key_resp_instr2.keys,key_resp_instr2.rt,key_resp_instr2.started,key_resp_instr2.stopped,text_fct.started,text_fct.stopped,left.started,left.stopped,right.started,right.stopped,key_resp_fct.keys,key_resp_fct.corr,key_resp_fct.rt,key_resp_fct.started,key_resp_fct.stopped,sound_fct.started,sound_fct.stopped,text_4.started,text_4.stopped,corrimgL.started,corrimgL.stopped,text_5.started,text_5.stopped,text_6.started,text_6.stopped,image.started,image.stopped,text_7.started,text_7.stopped,text_instr3.started,text_instr3.stopped,key_resp_instr3.keys,key_resp_instr3.rt,key_resp_instr3.started,key_resp_instr3.stopped,polygon.started,polygon.stopped,text_20.started,text_20.stopped,inputText,text_typeinstr.started,text_typeinstr.stopped,gather_img.started,gather_img.stopped,wordbank.started,wordbank.stopped,image_6.started,image_6.stopped,text_24.started,text_24.stopped,sound_6.started,sound_6.stopped,text_instr4.started,text_instr4.stopped,key_resp_instr4.keys,key_resp_instr4.rt,key_resp_instr4.started,key_resp_instr4.stopped,participant,date,expName,psychopyVersion,frameRate,
,,,,,,,,,,,,,,,,,,,,,,,,,,,,,,,,,,,,,,,,,,,,,,,,,,,,,,,,,,,,,,15.79343420800069,None,space,163.9882594489991,16.77952399700007,None,,,,,,,,,,,,,,,,,,,,,,,,,,,,,,,,,,,,,,,,,,,,,,,,,,,,,,,,,,,,,,,,,,,,,,,,,,,,,,,,,,,0101KH,2019_Jun_06_1200,negexp_reflow,3.1.2,59.88926917353421,
,,,,,,,,,,,,,,,,,,,,,,,,,,,,,,,,,,,,,,,,,,,,,,,,,,,,,,,,,,,,,,,,,,,,180.80130459800057,None,space,12.073808419998386,181.7858972890008,None,,,,,,,,,,,,,,,,,,,,,,,,,,,,,,,,,,,,,,,,,,,,,,,,,,,,,,,,,,,,,,,,,,,,,,,,,,,,,0101KH,2019_Jun_06_1200,negexp_reflow,3.1.2,59.88926917353421,
NounExposure.xlsx,"In the first learning phase, you will be shown an image with a word beneath it. You will also hear the word read aloud. Please repeat the word out loud and then use the picture to figure out what the word might mean. Then, use the space bar to advance to the next trial.

Press space bar to start learning.",4,NounFCT.xlsx,"Now you will be quizzed on the vocabulary you have been introduced to. Use the left and right arrow keys to choose the image on the screen that corresponds to the word.

Press space bar to continue.",NounTest.xlsx,2,"Next, you will be asked to produce what you have learned so far. Type the text that describes the image in the text box. After you have submitted your answer, the correct answer will appear on the screen briefly.

A word bank of the vocabulary is provided for your reference.

Press space bar to continue.",1,"You just completed learning phase 1 of 3. You may take a short break.

Press space when you are ready to continue.",falit,chef,None,CartoonStims/chef_r.jpg,audio/falit.wav,,,,,,,,,,,,0,0,0,0,0,0,0,2,,,,,,,,,,,,,,,,,,,,,,,,,,,,,,,,,,,,,,,,,193.95349158800127,None,space,12.65443871900061,194.90625446500053,None,207.70695902700027,None,207.70695902700027,None,space,4.457955494999624,208.10778536500038,None,207.8058730949997,None,,,,,,,,,,,,,,,,,,,,,,,,,,,,,,,,,,,,,,,,,,,,,,,,,,,,,,,,,,,,,0101KH,2019_Jun_06_1200,negexp_reflow,3.1.2,59.88926917353421,
NounExposure.xlsx,"In the first learning phase, you will be shown an image with a word beneath it. You will also hear the word read aloud. Please repeat the word out loud and then use the picture to figure out what the word might mean. Then, use the space bar to advance to the next trial.

Press space bar to start learning.",4,NounFCT.xlsx,"Now you will be quizzed on the vocabulary you have been introduced to. Use the left and right arrow keys to choose the image on the screen that corresponds to the word.

Press space bar to continue.",NounTest.xlsx,2,"Next, you will be asked to produce what you have learned so far. Type the text that describes the image in the text box. After you have submitted your answer, the correct answer will appear on the screen briefly.

A word bank of the vocabulary is provided for your reference.

Press space bar to continue.",1,"You just completed learning phase 1 of 3. You may take a short break.

Press space when you are ready to continue.",pepo,doctor,None,CartoonStims/doctor_r.jpg,audio/pepo.wav,,,,,,,,,,,,0,0,0,0,0,1,1,4,,,,,,,,,,,,,,,,,,,,,,,,,,,,,,,,,,,,,,,,,,,,,,,212.60429199700047,None,212.60429199700047,None,space,3.4510885370000324,213.0884982330008,None,212.80405763999988,None,,,,,,,,,,,,,,,,,,,,,,,,,,,,,,,,,,,,,,,,,,,,,,,,,,,,,,,,,,,,,0101KH,2019_Jun_06_1200,negexp_reflow,3.1.2,59.88926917353421,
NounExposure.xlsx,"In the first learning phase, you will be shown an image with a word beneath it. You will also hear the word read aloud. Please repeat the word out loud and then use the picture to figure out what the word might mean. Then, use the space bar to advance to the next trial.

Press space bar to start learning.",4,NounFCT.xlsx,"Now you will be quizzed on the vocabulary you have been introduced to. Use the left and right arrow keys to choose the image on the screen that corresponds to the word.

Press space bar to continue.",NounTest.xlsx,2,"Next, you will be asked to produce what you have learned so far. Type the text that describes the image in the text box. After you have submitted your answer, the correct answer will appear on the screen briefly.

A word bank of the vocabulary is provided for your reference.

Press space bar to continue.",1,"You just completed learning phase 1 of 3. You may take a short break.

Press space when you are ready to continue.",ludin,burglar,None,CartoonStims/burglar_r.jpg,audio/ludin.wav,,,,,,,,,,,,0,0,0,0,0,2,2,1,,,,,,,,,,,,,,,,,,,,,,,,,,,,,,,,,,,,,,,,,,,,,,,216.59847687100046,None,216.59847687100046,None,space,8.217619932000161,217.08242873000017,None,216.78088124399983,None,,,,,,,,,,,,,,,,,,,,,,,,,,,,,,,,,,,,,,,,,,,,,,,,,,,,,,,,,,,,,0101KH,2019_Jun_06_1200,negexp_reflow,3.1.2,59.88926917353421,
NounExposure.xlsx,"In the first learning phase, you will be shown an image with a word beneath it. You will also hear the word read aloud. Please repeat the word out loud and then use the picture to figure out what the word might mean. Then, use the space bar to advance to the next trial.

Press space bar to start learning.",4,NounFCT.xlsx,"Now you will be quizzed on the vocabulary you have been introduced to. Use the left and right arrow keys to choose the image on the screen that corresponds to the word.

Press space bar to continue.",NounTest.xlsx,2,"Next, you will be asked to produce what you have learned so far. Type the text that describes the image in the text box. After you have submitted your answer, the correct answer will appear on the screen briefly.

A word bank of the vocabulary is provided for your reference.

Press space bar to continue.",1,"You just completed learning phase 1 of 3. You may take a short break.

Press space when you are ready to continue.",sido,artist,None,CartoonStims/artist_r.jpg,audio/sido.wav,,,,,,,,,,,,0,0,0,0,0,3,3,0,,,,,,,,,,,,,,,,,,,,,,,,,,,,,,,,,,,,,,,,,,,,,,,225.33702837500095,None,225.33702837500095,None,space,3.802958268999646,225.8221646790007,None,225.53789516400138,None,,,,,,,,,,,,,,,,,,,,,,,,,,,,,,,,,,,,,,,,,,,,,,,,,,,,,,,,,,,,,0101KH,2019_Jun_06_1200,negexp_reflow,3.1.2,59.88926917353421,
NounExposure.xlsx,"In the first learning phase, you will be shown an image with a word beneath it. You will also hear the word read aloud. Please repeat the word out loud and then use the picture to figure out what the word might mean. Then, use the space bar to advance to the next trial.

Press space bar to start learning.",4,NounFCT.xlsx,"Now you will be quizzed on the vocabulary you have been introduced to. Use the left and right arrow keys to choose the image on the screen that corresponds to the word.

Press space bar to continue.",NounTest.xlsx,2,"Next, you will be asked to produce what you have learned so far. Type the text that describes the image in the text box. After you have submitted your answer, the correct answer will appear on the screen briefly.

A word bank of the vocabulary is provided for your reference.

Press space bar to continue.",1,"You just completed learning phase 1 of 3. You may take a short break.

Press space when you are ready to continue.",mook,cowboy,None,CartoonStims/cowboy_r.jpg,audio/mook.wav,,,,,,,,,,,,0,0,0,0,0,4,4,3,,,,,,,,,,,,,,,,,,,,,,,,,,,,,,,,,,,,,,,,,,,,,,,229.66528814699996,None,229.66528814699996,None,space,2.157874135000384,230.167267103001,None,229.8659756600009,None,,,,,,,,,,,,,,,,,,,,,,,,,,,,,,,,,,,,,,,,,,,,,,,,,,,,,,,,,,,,,0101KH,2019_Jun_06_1200,negexp_reflow,3.1.2,59.88926917353421,
NounExposure.xlsx,"In the first learning phase, you will be shown an image with a word beneath it. You will also hear the word read aloud. Please repeat the word out loud and then use the picture to figure out what the word might mean. Then, use the space bar to advance to the next trial.

Press space bar to start learning.",4,NounFCT.xlsx,"Now you will be quizzed on the vocabulary you have been introduced to. Use the left and right arrow keys to choose the image on the screen that corresponds to the word.

Press space bar to continue.",NounTest.xlsx,2,"Next, you will be asked to produce what you have learned so far. Type the text that describes the image in the text box. After you have submitted your answer, the correct answer will appear on the screen briefly.

A word bank of the vocabulary is provided for your reference.

Press space bar to continue.",1,"You just completed learning phase 1 of 3. You may take a short break.

Press space when you are ready to continue.",daki,boxer,None,CartoonStims/boxer_r.jpg,audio/daki.wav,,,,,,,,,,,,0,0,0,0,0,5,5,5,,,,,,,,,,,,,,,,,,,,,,,,,,,,,,,,,,,,,,,,,,,,,,,232.37275268899975,None,232.37275268899975,None,space,2.414693515000181,232.87391896100053,None,232.5732440110005,None,,,,,,,,,,,,,,,,,,,,,,,,,,,,,,,,,,,,,,,,,,,,,,,,,,,,,,,,,,,,,0101KH,2019_Jun_06_1200,negexp_reflow,3.1.2,59.88926917353421,
NounExposure.xlsx,"In the first learning phase, you will be shown an image with a word beneath it. You will also hear the word read aloud. Please repeat the word out loud and then use the picture to figure out what the word might mean. Then, use the space bar to advance to the next trial.

Press space bar to start learning.",4,NounFCT.xlsx,"Now you will be quizzed on the vocabulary you have been introduced to. Use the left and right arrow keys to choose the image on the screen that corresponds to the word.

Press space bar to continue.",NounTest.xlsx,2,"Next, you will be asked to produce what you have learned so far. Type the text that describes the image in the text box. After you have submitted your answer, the correct answer will appear on the screen briefly.

A word bank of the vocabulary is provided for your reference.

Press space bar to continue.",1,"You just completed learning phase 1 of 3. You may take a short break.

Press space when you are ready to continue.",sido,artist,None,CartoonStims/artist_r.jpg,audio/sido.wav,,,,,,,,,,,,0,0,0,0,1,0,6,0,,,,,,,,,,,,,,,,,,,,,,,,,,,,,,,,,,,,,,,,,,,,,,,235.32935420099966,None,235.32935420099966,None,space,2.5612899810003,235.8311330840006,None,235.53130736500134,None,,,,,,,,,,,,,,,,,,,,,,,,,,,,,,,,,,,,,,,,,,,,,,,,,,,,,,,,,,,,,0101KH,2019_Jun_06_1200,negexp_reflow,3.1.2,59.88926917353421,
NounExposure.xlsx,"In the first learning phase, you will be shown an image with a word beneath it. You will also hear the word read aloud. Please repeat the word out loud and then use the picture to figure out what the word might mean. Then, use the space bar to advance to the next trial.

Press space bar to start learning.",4,NounFCT.xlsx,"Now you will be quizzed on the vocabulary you have been introduced to. Use the left and right arrow keys to choose the image on the screen that corresponds to the word.

Press space bar to continue.",NounTest.xlsx,2,"Next, you will be asked to produce what you have learned so far. Type the text that describes the image in the text box. After you have submitted your answer, the correct answer will appear on the screen briefly.

A word bank of the vocabulary is provided for your reference.

Press space bar to continue.",1,"You just completed learning phase 1 of 3. You may take a short break.

Press space when you are ready to continue.",daki,boxer,None,CartoonStims/boxer_r.jpg,audio/daki.wav,,,,,,,,,,,,0,0,0,0,1,1,7,5,,,,,,,,,,,,,,,,,,,,,,,,,,,,,,,,,,,,,,,,,,,,,,,238.4388235839997,None,238.4388235839997,None,space,2.101133481000943,238.93921248100014,None,238.63932820599985,None,,,,,,,,,,,,,,,,,,,,,,,,,,,,,,,,,,,,,,,,,,,,,,,,,,,,,,,,,,,,,0101KH,2019_Jun_06_1200,negexp_reflow,3.1.2,59.88926917353421,
NounExposure.xlsx,"In the first learning phase, you will be shown an image with a word beneath it. You will also hear the word read aloud. Please repeat the word out loud and then use the picture to figure out what the word might mean. Then, use the space bar to advance to the next trial.

Press space bar to start learning.",4,NounFCT.xlsx,"Now you will be quizzed on the vocabulary you have been introduced to. Use the left and right arrow keys to choose the image on the screen that corresponds to the word.

Press space bar to continue.",NounTest.xlsx,2,"Next, you will be asked to produce what you have learned so far. Type the text that describes the image in the text box. After you have submitted your answer, the correct answer will appear on the screen briefly.

A word bank of the vocabulary is provided for your reference.

Press space bar to continue.",1,"You just completed learning phase 1 of 3. You may take a short break.

Press space when you are ready to continue.",falit,chef,None,CartoonStims/chef_r.jpg,audio/falit.wav,,,,,,,,,,,,0,0,0,0,1,2,8,2,,,,,,,,,,,,,,,,,,,,,,,,,,,,,,,,,,,,,,,,,,,,,,,241.07926387299995,None,241.07926387299995,None,space,2.0687397139990935,241.56338999900072,None,241.27996848899966,None,,,,,,,,,,,,,,,,,,,,,,,,,,,,,,,,,,,,,,,,,,,,,,,,,,,,,,,,,,,,,0101KH,2019_Jun_06_1200,negexp_reflow,3.1.2,59.88926917353421,
NounExposure.xlsx,"In the first learning phase, you will be shown an image with a word beneath it. You will also hear the word read aloud. Please repeat the word out loud and then use the picture to figure out what the word might mean. Then, use the space bar to advance to the next trial.

Press space bar to start learning.",4,NounFCT.xlsx,"Now you will be quizzed on the vocabulary you have been introduced to. Use the left and right arrow keys to choose the image on the screen that corresponds to the word.

Press space bar to continue.",NounTest.xlsx,2,"Next, you will be asked to produce what you have learned so far. Type the text that describes the image in the text box. After you have submitted your answer, the correct answer will appear on the screen briefly.

A word bank of the vocabulary is provided for your reference.

Press space bar to continue.",1,"You just completed learning phase 1 of 3. You may take a short break.

Press space when you are ready to continue.",pepo,doctor,None,CartoonStims/doctor_r.jpg,audio/pepo.wav,,,,,,,,,,,,0,0,0,0,1,3,9,4,,,,,,,,,,,,,,,,,,,,,,,,,,,,,,,,,,,,,,,,,,,,,,,243.66877525000018,None,243.66877525000018,None,space,1.6780183860009856,244.1709123540004,None,243.86948076000044,None,,,,,,,,,,,,,,,,,,,,,,,,,,,,,,,,,,,,,,,,,,,,,,,,,,,,,,,,,,,,,0101KH,2019_Jun_06_1200,negexp_reflow,3.1.2,59.88926917353421,
NounExposure.xlsx,"In the first learning phase, you will be shown an image with a word beneath it. You will also hear the word read aloud. Please repeat the word out loud and then use the picture to figure out what the word might mean. Then, use the space bar to advance to the next trial.

Press space bar to start learning.",4,NounFCT.xlsx,"Now you will be quizzed on the vocabulary you have been introduced to. Use the left and right arrow keys to choose the image on the screen that corresponds to the word.

Press space bar to continue.",NounTest.xlsx,2,"Next, you will be asked to produce what you have learned so far. Type the text that describes the image in the text box. After you have submitted your answer, the correct answer will appear on the screen briefly.

A word bank of the vocabulary is provided for your reference.

Press space bar to continue.",1,"You just completed learning phase 1 of 3. You may take a short break.

Press space when you are ready to continue.",mook,cowboy,None,CartoonStims/cowboy_r.jpg,audio/mook.wav,,,,,,,,,,,,0,0,0,0,1,4,10,3,,,,,,,,,,,,,,,,,,,,,,,,,,,,,,,,,,,,,,,,,,,,,,,245.8914816510005,None,245.8914816510005,None,space,2.4223840909999126,246.39355470400005,None,246.09284782100076,None,,,,,,,,,,,,,,,,,,,,,,,,,,,,,,,,,,,,,,,,,,,,,,,,,,,,,,,,,,,,,0101KH,2019_Jun_06_1200,negexp_reflow,3.1.2,59.88926917353421,
NounExposure.xlsx,"In the first learning phase, you will be shown an image with a word beneath it. You will also hear the word read aloud. Please repeat the word out loud and then use the picture to figure out what the word might mean. Then, use the space bar to advance to the next trial.

Press space bar to start learning.",4,NounFCT.xlsx,"Now you will be quizzed on the vocabulary you have been introduced to. Use the left and right arrow keys to choose the image on the screen that corresponds to the word.

Press space bar to continue.",NounTest.xlsx,2,"Next, you will be asked to produce what you have learned so far. Type the text that describes the image in the text box. After you have submitted your answer, the correct answer will appear on the screen briefly.

A word bank of the vocabulary is provided for your reference.

Press space bar to continue.",1,"You just completed learning phase 1 of 3. You may take a short break.

Press space when you are ready to continue.",ludin,burglar,None,CartoonStims/burglar_r.jpg,audio/ludin.wav,,,,,,,,,,,,0,0,0,0,1,5,11,1,,,,,,,,,,,,,,,,,,,,,,,,,,,,,,,,,,,,,,,,,,,,,,,248.85017245600102,None,248.85017245600102,None,space,1.6813957069989556,249.35143394400075,None,249.05052704300033,None,,,,,,,,,,,,,,,,,,,,,,,,,,,,,,,,,,,,,,,,,,,,,,,,,,,,,,,,,,,,,0101KH,2019_Jun_06_1200,negexp_reflow,3.1.2,59.88926917353421,
NounExposure.xlsx,"In the first learning phase, you will be shown an image with a word beneath it. You will also hear the word read aloud. Please repeat the word out loud and then use the picture to figure out what the word might mean. Then, use the space bar to advance to the next trial.

Press space bar to start learning.",4,NounFCT.xlsx,"Now you will be quizzed on the vocabulary you have been introduced to. Use the left and right arrow keys to choose the image on the screen that corresponds to the word.

Press space bar to continue.",NounTest.xlsx,2,"Next, you will be asked to produce what you have learned so far. Type the text that describes the image in the text box. After you have submitted your answer, the correct answer will appear on the screen briefly.

A word bank of the vocabulary is provided for your reference.

Press space bar to continue.",1,"You just completed learning phase 1 of 3. You may take a short break.

Press space when you are ready to continue.",falit,chef,None,CartoonStims/chef_r.jpg,audio/falit.wav,,,,,,,,,,,,0,0,0,0,2,0,12,2,,,,,,,,,,,,,,,,,,,,,,,,,,,,,,,,,,,,,,,,,,,,,,,251.07222309600002,None,251.07222309600002,None,space,2.134153824999885,251.55646520899973,None,251.27372605500022,None,,,,,,,,,,,,,,,,,,,,,,,,,,,,,,,,,,,,,,,,,,,,,,,,,,,,,,,,,,,,,0101KH,2019_Jun_06_1200,negexp_reflow,3.1.2,59.88926917353421,
NounExposure.xlsx,"In the first learning phase, you will be shown an image with a word beneath it. You will also hear the word read aloud. Please repeat the word out loud and then use the picture to figure out what the word might mean. Then, use the space bar to advance to the next trial.

Press space bar to start learning.",4,NounFCT.xlsx,"Now you will be quizzed on the vocabulary you have been introduced to. Use the left and right arrow keys to choose the image on the screen that corresponds to the word.

Press space bar to continue.",NounTest.xlsx,2,"Next, you will be asked to produce what you have learned so far. Type the text that describes the image in the text box. After you have submitted your answer, the correct answer will appear on the screen briefly.

A word bank of the vocabulary is provided for your reference.

Press space bar to continue.",1,"You just completed learning phase 1 of 3. You may take a short break.

Press space when you are ready to continue.",mook,cowboy,None,CartoonStims/cowboy_r.jpg,audio/mook.wav,,,,,,,,,,,,0,0,0,0,2,1,13,3,,,,,,,,,,,,,,,,,,,,,,,,,,,,,,,,,,,,,,,,,,,,,,,253.7296836300011,None,253.7296836300011,None,space,1.8562289359997521,254.23105239300094,None,253.929983723001,None,,,,,,,,,,,,,,,,,,,,,,,,,,,,,,,,,,,,,,,,,,,,,,,,,,,,,,,,,,,,,0101KH,2019_Jun_06_1200,negexp_reflow,3.1.2,59.88926917353421,
NounExposure.xlsx,"In the first learning phase, you will be shown an image with a word beneath it. You will also hear the word read aloud. Please repeat the word out loud and then use the picture to figure out what the word might mean. Then, use the space bar to advance to the next trial.

Press space bar to start learning.",4,NounFCT.xlsx,"Now you will be quizzed on the vocabulary you have been introduced to. Use the left and right arrow keys to choose the image on the screen that corresponds to the word.

Press space bar to continue.",NounTest.xlsx,2,"Next, you will be asked to produce what you have learned so far. Type the text that describes the image in the text box. After you have submitted your answer, the correct answer will appear on the screen briefly.

A word bank of the vocabulary is provided for your reference.

Press space bar to continue.",1,"You just completed learning phase 1 of 3. You may take a short break.

Press space when you are ready to continue.",pepo,doctor,None,CartoonStims/doctor_r.jpg,audio/pepo.wav,,,,,,,,,,,,0,0,0,0,2,2,14,4,,,,,,,,,,,,,,,,,,,,,,,,,,,,,,,,,,,,,,,,,,,,,,,256.13664032199995,None,256.13664032199995,None,space,2.065460603998872,256.63683345699974,None,256.3369435349996,None,,,,,,,,,,,,,,,,,,,,,,,,,,,,,,,,,,,,,,,,,,,,,,,,,,,,,,,,,,,,,0101KH,2019_Jun_06_1200,negexp_reflow,3.1.2,59.88926917353421,
NounExposure.xlsx,"In the first learning phase, you will be shown an image with a word beneath it. You will also hear the word read aloud. Please repeat the word out loud and then use the picture to figure out what the word might mean. Then, use the space bar to advance to the next trial.

Press space bar to start learning.",4,NounFCT.xlsx,"Now you will be quizzed on the vocabulary you have been introduced to. Use the left and right arrow keys to choose the image on the screen that corresponds to the word.

Press space bar to continue.",NounTest.xlsx,2,"Next, you will be asked to produce what you have learned so far. Type the text that describes the image in the text box. After you have submitted your answer, the correct answer will appear on the screen briefly.

A word bank of the vocabulary is provided for your reference.

Press space bar to continue.",1,"You just completed learning phase 1 of 3. You may take a short break.

Press space when you are ready to continue.",daki,boxer,None,CartoonStims/boxer_r.jpg,audio/daki.wav,,,,,,,,,,,,0,0,0,0,2,3,15,5,,,,,,,,,,,,,,,,,,,,,,,,,,,,,,,,,,,,,,,,,,,,,,,258.7427065810007,None,258.7427065810007,None,space,1.4545027559997834,259.22751430100107,None,258.94313590599995,None,,,,,,,,,,,,,,,,,,,,,,,,,,,,,,,,,,,,,,,,,,,,,,,,,,,,,,,,,,,,,0101KH,2019_Jun_06_1200,negexp_reflow,3.1.2,59.88926917353421,
NounExposure.xlsx,"In the first learning phase, you will be shown an image with a word beneath it. You will also hear the word read aloud. Please repeat the word out loud and then use the picture to figure out what the word might mean. Then, use the space bar to advance to the next trial.

Press space bar to start learning.",4,NounFCT.xlsx,"Now you will be quizzed on the vocabulary you have been introduced to. Use the left and right arrow keys to choose the image on the screen that corresponds to the word.

Press space bar to continue.",NounTest.xlsx,2,"Next, you will be asked to produce what you have learned so far. Type the text that describes the image in the text box. After you have submitted your answer, the correct answer will appear on the screen briefly.

A word bank of the vocabulary is provided for your reference.

Press space bar to continue.",1,"You just completed learning phase 1 of 3. You may take a short break.

Press space when you are ready to continue.",ludin,burglar,None,CartoonStims/burglar_r.jpg,audio/ludin.wav,,,,,,,,,,,,0,0,0,0,2,4,16,1,,,,,,,,,,,,,,,,,,,,,,,,,,,,,,,,,,,,,,,,,,,,,,,260.7321197700003,None,260.7321197700003,None,space,1.4156043889997818,261.2333524050009,None,260.93250700499993,None,,,,,,,,,,,,,,,,,,,,,,,,,,,,,,,,,,,,,,,,,,,,,,,,,,,,,,,,,,,,,0101KH,2019_Jun_06_1200,negexp_reflow,3.1.2,59.88926917353421,
NounExposure.xlsx,"In the first learning phase, you will be shown an image with a word beneath it. You will also hear the word read aloud. Please repeat the word out loud and then use the picture to figure out what the word might mean. Then, use the space bar to advance to the next trial.

Press space bar to start learning.",4,NounFCT.xlsx,"Now you will be quizzed on the vocabulary you have been introduced to. Use the left and right arrow keys to choose the image on the screen that corresponds to the word.

Press space bar to continue.",NounTest.xlsx,2,"Next, you will be asked to produce what you have learned so far. Type the text that describes the image in the text box. After you have submitted your answer, the correct answer will appear on the screen briefly.

A word bank of the vocabulary is provided for your reference.

Press space bar to continue.",1,"You just completed learning phase 1 of 3. You may take a short break.

Press space when you are ready to continue.",sido,artist,None,CartoonStims/artist_r.jpg,audio/sido.wav,,,,,,,,,,,,0,0,0,0,2,5,17,0,,,,,,,,,,,,,,,,,,,,,,,,,,,,,,,,,,,,,,,,,,,,,,,262.6862100489998,None,262.6862100489998,None,space,1.482587960001183,263.18823436599996,None,262.8864935290003,None,,,,,,,,,,,,,,,,,,,,,,,,,,,,,,,,,,,,,,,,,,,,,,,,,,,,,,,,,,,,,0101KH,2019_Jun_06_1200,negexp_reflow,3.1.2,59.88926917353421,
NounExposure.xlsx,"In the first learning phase, you will be shown an image with a word beneath it. You will also hear the word read aloud. Please repeat the word out loud and then use the picture to figure out what the word might mean. Then, use the space bar to advance to the next trial.

Press space bar to start learning.",4,NounFCT.xlsx,"Now you will be quizzed on the vocabulary you have been introduced to. Use the left and right arrow keys to choose the image on the screen that corresponds to the word.

Press space bar to continue.",NounTest.xlsx,2,"Next, you will be asked to produce what you have learned so far. Type the text that describes the image in the text box. After you have submitted your answer, the correct answer will appear on the screen briefly.

A word bank of the vocabulary is provided for your reference.

Press space bar to continue.",1,"You just completed learning phase 1 of 3. You may take a short break.

Press space when you are ready to continue.",sido,artist,None,CartoonStims/artist_r.jpg,audio/sido.wav,,,,,,,,,,,,0,0,0,0,3,0,18,0,,,,,,,,,,,,,,,,,,,,,,,,,,,,,,,,,,,,,,,,,,,,,,,264.70956648100037,None,264.70956648100037,None,space,1.483876151000004,265.20995527500054,None,264.9095758530002,None,,,,,,,,,,,,,,,,,,,,,,,,,,,,,,,,,,,,,,,,,,,,,,,,,,,,,,,,,,,,,0101KH,2019_Jun_06_1200,negexp_reflow,3.1.2,59.88926917353421,
NounExposure.xlsx,"In the first learning phase, you will be shown an image with a word beneath it. You will also hear the word read aloud. Please repeat the word out loud and then use the picture to figure out what the word might mean. Then, use the space bar to advance to the next trial.

Press space bar to start learning.",4,NounFCT.xlsx,"Now you will be quizzed on the vocabulary you have been introduced to. Use the left and right arrow keys to choose the image on the screen that corresponds to the word.

Press space bar to continue.",NounTest.xlsx,2,"Next, you will be asked to produce what you have learned so far. Type the text that describes the image in the text box. After you have submitted your answer, the correct answer will appear on the screen briefly.

A word bank of the vocabulary is provided for your reference.

Press space bar to continue.",1,"You just completed learning phase 1 of 3. You may take a short break.

Press space when you are ready to continue.",pepo,doctor,None,CartoonStims/doctor_r.jpg,audio/pepo.wav,,,,,,,,,,,,0,0,0,0,3,1,19,4,,,,,,,,,,,,,,,,,,,,,,,,,,,,,,,,,,,,,,,,,,,,,,,266.7312759939996,None,266.7312759939996,None,space,1.6620448579997174,267.2326963710002,None,266.93126277400006,None,,,,,,,,,,,,,,,,,,,,,,,,,,,,,,,,,,,,,,,,,,,,,,,,,,,,,,,,,,,,,0101KH,2019_Jun_06_1200,negexp_reflow,3.1.2,59.88926917353421,
NounExposure.xlsx,"In the first learning phase, you will be shown an image with a word beneath it. You will also hear the word read aloud. Please repeat the word out loud and then use the picture to figure out what the word might mean. Then, use the space bar to advance to the next trial.

Press space bar to start learning.",4,NounFCT.xlsx,"Now you will be quizzed on the vocabulary you have been introduced to. Use the left and right arrow keys to choose the image on the screen that corresponds to the word.

Press space bar to continue.",NounTest.xlsx,2,"Next, you will be asked to produce what you have learned so far. Type the text that describes the image in the text box. After you have submitted your answer, the correct answer will appear on the screen briefly.

A word bank of the vocabulary is provided for your reference.

Press space bar to continue.",1,"You just completed learning phase 1 of 3. You may take a short break.

Press space when you are ready to continue.",falit,chef,None,CartoonStims/chef_r.jpg,audio/falit.wav,,,,,,,,,,,,0,0,0,0,3,2,20,2,,,,,,,,,,,,,,,,,,,,,,,,,,,,,,,,,,,,,,,,,,,,,,,268.93610317800085,None,268.93610317800085,None,space,1.0890927229993395,269.4374674560004,None,269.1375253940005,None,,,,,,,,,,,,,,,,,,,,,,,,,,,,,,,,,,,,,,,,,,,,,,,,,,,,,,,,,,,,,0101KH,2019_Jun_06_1200,negexp_reflow,3.1.2,59.88926917353421,
NounExposure.xlsx,"In the first learning phase, you will be shown an image with a word beneath it. You will also hear the word read aloud. Please repeat the word out loud and then use the picture to figure out what the word might mean. Then, use the space bar to advance to the next trial.

Press space bar to start learning.",4,NounFCT.xlsx,"Now you will be quizzed on the vocabulary you have been introduced to. Use the left and right arrow keys to choose the image on the screen that corresponds to the word.

Press space bar to continue.",NounTest.xlsx,2,"Next, you will be asked to produce what you have learned so far. Type the text that describes the image in the text box. After you have submitted your answer, the correct answer will appear on the screen briefly.

A word bank of the vocabulary is provided for your reference.

Press space bar to continue.",1,"You just completed learning phase 1 of 3. You may take a short break.

Press space when you are ready to continue.",daki,boxer,None,CartoonStims/boxer_r.jpg,audio/daki.wav,,,,,,,,,,,,0,0,0,0,3,3,21,5,,,,,,,,,,,,,,,,,,,,,,,,,,,,,,,,,,,,,,,,,,,,,,,270.5746536120005,None,270.5746536120005,None,space,2.4177416439997614,271.0745241910008,None,270.7752409450004,None,,,,,,,,,,,,,,,,,,,,,,,,,,,,,,,,,,,,,,,,,,,,,,,,,,,,,,,,,,,,,0101KH,2019_Jun_06_1200,negexp_reflow,3.1.2,59.88926917353421,
NounExposure.xlsx,"In the first learning phase, you will be shown an image with a word beneath it. You will also hear the word read aloud. Please repeat the word out loud and then use the picture to figure out what the word might mean. Then, use the space bar to advance to the next trial.

Press space bar to start learning.",4,NounFCT.xlsx,"Now you will be quizzed on the vocabulary you have been introduced to. Use the left and right arrow keys to choose the image on the screen that corresponds to the word.

Press space bar to continue.",NounTest.xlsx,2,"Next, you will be asked to produce what you have learned so far. Type the text that describes the image in the text box. After you have submitted your answer, the correct answer will appear on the screen briefly.

A word bank of the vocabulary is provided for your reference.

Press space bar to continue.",1,"You just completed learning phase 1 of 3. You may take a short break.

Press space when you are ready to continue.",ludin,burglar,None,CartoonStims/burglar_r.jpg,audio/ludin.wav,,,,,,,,,,,,0,0,0,0,3,4,22,1,,,,,,,,,,,,,,,,,,,,,,,,,,,,,,,,,,,,,,,,,,,,,,,273.6309253649997,None,273.6309253649997,None,space,2.6679608340000414,274.0321944160005,None,273.731335036,None,,,,,,,,,,,,,,,,,,,,,,,,,,,,,,,,,,,,,,,,,,,,,,,,,,,,,,,,,,,,,0101KH,2019_Jun_06_1200,negexp_reflow,3.1.2,59.88926917353421,
NounExposure.xlsx,"In the first learning phase, you will be shown an image with a word beneath it. You will also hear the word read aloud. Please repeat the word out loud and then use the picture to figure out what the word might mean. Then, use the space bar to advance to the next trial.

Press space bar to start learning.",4,NounFCT.xlsx,"Now you will be quizzed on the vocabulary you have been introduced to. Use the left and right arrow keys to choose the image on the screen that corresponds to the word.

Press space bar to continue.",NounTest.xlsx,2,"Next, you will be asked to produce what you have learned so far. Type the text that describes the image in the text box. After you have submitted your answer, the correct answer will appear on the screen briefly.

A word bank of the vocabulary is provided for your reference.

Press space bar to continue.",1,"You just completed learning phase 1 of 3. You may take a short break.

Press space when you are ready to continue.",mook,cowboy,None,CartoonStims/cowboy_r.jpg,audio/mook.wav,,,,,,,,,,,,0,0,0,0,3,5,23,3,,,,,,,,,,,,,,,,,,,,,,,,,,,,,,,,,,,,,,,,,,,,,,,276.74114078000093,None,276.74114078000093,None,space,2.105554566000137,277.2418710460006,None,276.9417333680012,None,,,,,,,,,,,,,,,,,,,,,,,,,,,,,,,,,,,,,,,,,,,,,,,,,,,,,,,,,,,,,0101KH,2019_Jun_06_1200,negexp_reflow,3.1.2,59.88926917353421,
NounExposure.xlsx,"In the first learning phase, you will be shown an image with a word beneath it. You will also hear the word read aloud. Please repeat the word out loud and then use the picture to figure out what the word might mean. Then, use the space bar to advance to the next trial.

Press space bar to start learning.",4,NounFCT.xlsx,"Now you will be quizzed on the vocabulary you have been introduced to. Use the left and right arrow keys to choose the image on the screen that corresponds to the word.

Press space bar to continue.",NounTest.xlsx,2,"Next, you will be asked to produce what you have learned so far. Type the text that describes the image in the text box. After you have submitted your answer, the correct answer will appear on the screen briefly.

A word bank of the vocabulary is provided for your reference.

Press space bar to continue.",1,"You just completed learning phase 1 of 3. You may take a short break.

Press space when you are ready to continue.",,,,,,CartoonStims/doctor_r.jpg,pepo,CartoonStims/boxer_r.jpg,left,CartoonStims/doctor_r.jpg,audio/pepo.wav,,,,,,0,0,0,0,,,,,0,0,0,4,0,0,0,0,,,,,,,,,,,,,,,,,,,,,,,,,,,,,,,,,,,,,,,,,,,,,,,,,279.41435978499976,None,space,6.677567673999874,280.3665618310006,None,287.1027710800008,None,287.1027710800008,None,287.1027710800008,None,left,1,1.4504739890016936,287.3854178840011,None,287.2855742520005,None,288.87367544300105,None,288.87367544300105,None,288.87367544300105,None,,,,,,,,,,,,,,,,,,,,,,,,,,,,,,,,,,,,0101KH,2019_Jun_06_1200,negexp_reflow,3.1.2,59.88926917353421,
NounExposure.xlsx,"In the first learning phase, you will be shown an image with a word beneath it. You will also hear the word read aloud. Please repeat the word out loud and then use the picture to figure out what the word might mean. Then, use the space bar to advance to the next trial.

Press space bar to start learning.",4,NounFCT.xlsx,"Now you will be quizzed on the vocabulary you have been introduced to. Use the left and right arrow keys to choose the image on the screen that corresponds to the word.

Press space bar to continue.",NounTest.xlsx,2,"Next, you will be asked to produce what you have learned so far. Type the text that describes the image in the text box. After you have submitted your answer, the correct answer will appear on the screen briefly.

A word bank of the vocabulary is provided for your reference.

Press space bar to continue.",1,"You just completed learning phase 1 of 3. You may take a short break.

Press space when you are ready to continue.",,,,,,CartoonStims/doctor_r.jpg,pepo,CartoonStims/boxer_r.jpg,left,CartoonStims/doctor_r.jpg,audio/pepo.wav,,,,,,0,0,0,0,,,,,0,0,0,4,,,,,,,,,,,,,,,,,,,,,,,,,,,,,,,,,,,,,,,,,,,,,,,,,,,,,,,,,,,,,,,,,,,,,,,,,,,,,,,,,,,,,,,,,,,,,,,,,,,,,,,,,,,,,,,,,0101KH,2019_Jun_06_1200,negexp_reflow,3.1.2,59.88926917353421,
NounExposure.xlsx,"In the first learning phase, you will be shown an image with a word beneath it. You will also hear the word read aloud. Please repeat the word out loud and then use the picture to figure out what the word might mean. Then, use the space bar to advance to the next trial.

Press space bar to start learning.",4,NounFCT.xlsx,"Now you will be quizzed on the vocabulary you have been introduced to. Use the left and right arrow keys to choose the image on the screen that corresponds to the word.

Press space bar to continue.",NounTest.xlsx,2,"Next, you will be asked to produce what you have learned so far. Type the text that describes the image in the text box. After you have submitted your answer, the correct answer will appear on the screen briefly.

A word bank of the vocabulary is provided for your reference.

Press space bar to continue.",1,"You just completed learning phase 1 of 3. You may take a short break.

Press space when you are ready to continue.",,,,,,CartoonStims/boxer_r.jpg,mook,CartoonStims/cowboy_r.jpg,right,CartoonStims/cowboy_r.jpg,audio/mook.wav,,,,,,0,0,0,0,,,,,0,1,1,9,,,,,0,0,0,0,,,,,,,,,,,,,,,,,,,,,,,,,,,,,,,,,,,,,,,,,,,,,,,,,,,290.89573950700105,None,290.89573950700105,None,290.89573950700105,None,right,1,1.0864623249999568,291.17995379199965,None,291.0789843700004,None,,,,,,,292.31537924000077,None,292.31537924000077,None,292.31537924000077,None,,,,,,,,,,,,,,,,,,,,,,,,,,,,,,0101KH,2019_Jun_06_1200,negexp_reflow,3.1.2,59.88926917353421,
NounExposure.xlsx,"In the first learning phase, you will be shown an image with a word beneath it. You will also hear the word read aloud. Please repeat the word out loud and then use the picture to figure out what the word might mean. Then, use the space bar to advance to the next trial.

Press space bar to start learning.",4,NounFCT.xlsx,"Now you will be quizzed on the vocabulary you have been introduced to. Use the left and right arrow keys to choose the image on the screen that corresponds to the word.

Press space bar to continue.",NounTest.xlsx,2,"Next, you will be asked to produce what you have learned so far. Type the text that describes the image in the text box. After you have submitted your answer, the correct answer will appear on the screen briefly.

A word bank of the vocabulary is provided for your reference.

Press space bar to continue.",1,"You just completed learning phase 1 of 3. You may take a short break.

Press space when you are ready to continue.",,,,,,CartoonStims/boxer_r.jpg,mook,CartoonStims/cowboy_r.jpg,right,CartoonStims/cowboy_r.jpg,audio/mook.wav,,,,,,0,0,0,0,,,,,0,1,1,9,,,,,,,,,,,,,,,,,,,,,,,,,,,,,,,,,,,,,,,,,,,,,,,,,,,,,,,,,,,,,,,,,,,,,,,,,,,,,,,,,,,,,,,,,,,,,,,,,,,,,,,,,,,,,,,,,0101KH,2019_Jun_06_1200,negexp_reflow,3.1.2,59.88926917353421,
NounExposure.xlsx,"In the first learning phase, you will be shown an image with a word beneath it. You will also hear the word read aloud. Please repeat the word out loud and then use the picture to figure out what the word might mean. Then, use the space bar to advance to the next trial.

Press space bar to start learning.",4,NounFCT.xlsx,"Now you will be quizzed on the vocabulary you have been introduced to. Use the left and right arrow keys to choose the image on the screen that corresponds to the word.

Press space bar to continue.",NounTest.xlsx,2,"Next, you will be asked to produce what you have learned so far. Type the text that describes the image in the text box. After you have submitted your answer, the correct answer will appear on the screen briefly.

A word bank of the vocabulary is provided for your reference.

Press space bar to continue.",1,"You just completed learning phase 1 of 3. You may take a short break.

Press space when you are ready to continue.",,,,,,CartoonStims/doctor_r.jpg,falit,CartoonStims/chef_r.jpg,right,CartoonStims/chef_r.jpg,audio/falit.wav,,,,,,0,0,0,0,,,,,0,2,2,8,,,,,0,0,0,0,,,,,,,,,,,,,,,,,,,,,,,,,,,,,,,,,,,,,,,,,,,,,,,,,,,294.33786214000065,None,294.33786214000065,None,294.33786214000065,None,right,1,1.2468046520007192,294.6220349710002,None,294.52248753599997,None,,,,,,,295.9094057399998,None,295.9094057399998,None,295.9094057399998,None,,,,,,,,,,,,,,,,,,,,,,,,,,,,,,0101KH,2019_Jun_06_1200,negexp_reflow,3.1.2,59.88926917353421,
NounExposure.xlsx,"In the first learning phase, you will be shown an image with a word beneath it. You will also hear the word read aloud. Please repeat the word out loud and then use the picture to figure out what the word might mean. Then, use the space bar to advance to the next trial.

Press space bar to start learning.",4,NounFCT.xlsx,"Now you will be quizzed on the vocabulary you have been introduced to. Use the left and right arrow keys to choose the image on the screen that corresponds to the word.

Press space bar to continue.",NounTest.xlsx,2,"Next, you will be asked to produce what you have learned so far. Type the text that describes the image in the text box. After you have submitted your answer, the correct answer will appear on the screen briefly.

A word bank of the vocabulary is provided for your reference.

Press space bar to continue.",1,"You just completed learning phase 1 of 3. You may take a short break.

Press space when you are ready to continue.",,,,,,CartoonStims/doctor_r.jpg,falit,CartoonStims/chef_r.jpg,right,CartoonStims/chef_r.jpg,audio/falit.wav,,,,,,0,0,0,0,,,,,0,2,2,8,,,,,,,,,,,,,,,,,,,,,,,,,,,,,,,,,,,,,,,,,,,,,,,,,,,,,,,,,,,,,,,,,,,,,,,,,,,,,,,,,,,,,,,,,,,,,,,,,,,,,,,,,,,,,,,,,0101KH,2019_Jun_06_1200,negexp_reflow,3.1.2,59.88926917353421,
NounExposure.xlsx,"In the first learning phase, you will be shown an image with a word beneath it. You will also hear the word read aloud. Please repeat the word out loud and then use the picture to figure out what the word might mean. Then, use the space bar to advance to the next trial.

Press space bar to start learning.",4,NounFCT.xlsx,"Now you will be quizzed on the vocabulary you have been introduced to. Use the left and right arrow keys to choose the image on the screen that corresponds to the word.

Press space bar to continue.",NounTest.xlsx,2,"Next, you will be asked to produce what you have learned so far. Type the text that describes the image in the text box. After you have submitted your answer, the correct answer will appear on the screen briefly.

A word bank of the vocabulary is provided for your reference.

Press space bar to continue.",1,"You just completed learning phase 1 of 3. You may take a short break.

Press space when you are ready to continue.",,,,,,CartoonStims/chef_r.jpg,sido,CartoonStims/artist_r.jpg,right,CartoonStims/artist_r.jpg,audio/sido.wav,,,,,,0,0,0,0,,,,,0,3,3,6,,,,,0,0,0,0,,,,,,,,,,,,,,,,,,,,,,,,,,,,,,,,,,,,,,,,,,,,,,,,,,,297.9145907000002,None,297.9145907000002,None,297.9145907000002,None,right,1,2.969131619998734,298.2145613970006,None,298.1147577640004,None,,,,,,,301.20693821500026,None,301.20693821500026,None,301.20693821500026,None,,,,,,,,,,,,,,,,,,,,,,,,,,,,,,0101KH,2019_Jun_06_1200,negexp_reflow,3.1.2,59.88926917353421,
NounExposure.xlsx,"In the first learning phase, you will be shown an image with a word beneath it. You will also hear the word read aloud. Please repeat the word out loud and then use the picture to figure out what the word might mean. Then, use the space bar to advance to the next trial.

Press space bar to start learning.",4,NounFCT.xlsx,"Now you will be quizzed on the vocabulary you have been introduced to. Use the left and right arrow keys to choose the image on the screen that corresponds to the word.

Press space bar to continue.",NounTest.xlsx,2,"Next, you will be asked to produce what you have learned so far. Type the text that describes the image in the text box. After you have submitted your answer, the correct answer will appear on the screen briefly.

A word bank of the vocabulary is provided for your reference.

Press space bar to continue.",1,"You just completed learning phase 1 of 3. You may take a short break.

Press space when you are ready to continue.",,,,,,CartoonStims/chef_r.jpg,sido,CartoonStims/artist_r.jpg,right,CartoonStims/artist_r.jpg,audio/sido.wav,,,,,,0,0,0,0,,,,,0,3,3,6,,,,,,,,,,,,,,,,,,,,,,,,,,,,,,,,,,,,,,,,,,,,,,,,,,,,,,,,,,,,,,,,,,,,,,,,,,,,,,,,,,,,,,,,,,,,,,,,,,,,,,,,,,,,,,,,,0101KH,2019_Jun_06_1200,negexp_reflow,3.1.2,59.88926917353421,
NounExposure.xlsx,"In the first learning phase, you will be shown an image with a word beneath it. You will also hear the word read aloud. Please repeat the word out loud and then use the picture to figure out what the word might mean. Then, use the space bar to advance to the next trial.

Press space bar to start learning.",4,NounFCT.xlsx,"Now you will be quizzed on the vocabulary you have been introduced to. Use the left and right arrow keys to choose the image on the screen that corresponds to the word.

Press space bar to continue.",NounTest.xlsx,2,"Next, you will be asked to produce what you have learned so far. Type the text that describes the image in the text box. After you have submitted your answer, the correct answer will appear on the screen briefly.

A word bank of the vocabulary is provided for your reference.

Press space bar to continue.",1,"You just completed learning phase 1 of 3. You may take a short break.

Press space when you are ready to continue.",,,,,,CartoonStims/artist_r.jpg,sido,CartoonStims/burglar_r.jpg,left,CartoonStims/artist_r.jpg,audio/sido.wav,,,,,,0,0,0,0,,,,,0,4,4,0,0,0,0,0,,,,,,,,,,,,,,,,,,,,,,,,,,,,,,,,,,,,,,,,,,,,,,,,,,,,,,,303.2280446120003,None,303.2280446120003,None,303.2280446120003,None,left,1,1.1086664670001483,303.52857024200057,None,303.42937425700075,None,304.66537603800134,None,304.66537603800134,None,304.66537603800134,None,,,,,,,,,,,,,,,,,,,,,,,,,,,,,,,,,,,,0101KH,2019_Jun_06_1200,negexp_reflow,3.1.2,59.88926917353421,
NounExposure.xlsx,"In the first learning phase, you will be shown an image with a word beneath it. You will also hear the word read aloud. Please repeat the word out loud and then use the picture to figure out what the word might mean. Then, use the space bar to advance to the next trial.

Press space bar to start learning.",4,NounFCT.xlsx,"Now you will be quizzed on the vocabulary you have been introduced to. Use the left and right arrow keys to choose the image on the screen that corresponds to the word.

Press space bar to continue.",NounTest.xlsx,2,"Next, you will be asked to produce what you have learned so far. Type the text that describes the image in the text box. After you have submitted your answer, the correct answer will appear on the screen briefly.

A word bank of the vocabulary is provided for your reference.

Press space bar to continue.",1,"You just completed learning phase 1 of 3. You may take a short break.

Press space when you are ready to continue.",,,,,,CartoonStims/artist_r.jpg,sido,CartoonStims/burglar_r.jpg,left,CartoonStims/artist_r.jpg,audio/sido.wav,,,,,,0,0,0,0,,,,,0,4,4,0,,,,,,,,,,,,,,,,,,,,,,,,,,,,,,,,,,,,,,,,,,,,,,,,,,,,,,,,,,,,,,,,,,,,,,,,,,,,,,,,,,,,,,,,,,,,,,,,,,,,,,,,,,,,,,,,,0101KH,2019_Jun_06_1200,negexp_reflow,3.1.2,59.88926917353421,
NounExposure.xlsx,"In the first learning phase, you will be shown an image with a word beneath it. You will also hear the word read aloud. Please repeat the word out loud and then use the picture to figure out what the word might mean. Then, use the space bar to advance to the next trial.

Press space bar to start learning.",4,NounFCT.xlsx,"Now you will be quizzed on the vocabulary you have been introduced to. Use the left and right arrow keys to choose the image on the screen that corresponds to the word.

Press space bar to continue.",NounTest.xlsx,2,"Next, you will be asked to produce what you have learned so far. Type the text that describes the image in the text box. After you have submitted your answer, the correct answer will appear on the screen briefly.

A word bank of the vocabulary is provided for your reference.

Press space bar to continue.",1,"You just completed learning phase 1 of 3. You may take a short break.

Press space when you are ready to continue.",,,,,,CartoonStims/cowboy_r.jpg,mook,CartoonStims/doctor_r.jpg,left,CartoonStims/cowboy_r.jpg,audio/mook.wav,,,,,,0,0,0,0,,,,,0,5,5,3,0,0,0,0,,,,,,,,,,,,,,,,,,,,,,,,,,,,,,,,,,,,,,,,,,,,,,,,,,,,,,,306.6883423340005,None,306.6883423340005,None,306.6883423340005,None,left,1,1.1504065879998961,306.9880821730003,None,306.8885729800004,None,308.15878935,None,308.15878935,None,308.15878935,None,,,,,,,,,,,,,,,,,,,,,,,,,,,,,,,,,,,,0101KH,2019_Jun_06_1200,negexp_reflow,3.1.2,59.88926917353421,
NounExposure.xlsx,"In the first learning phase, you will be shown an image with a word beneath it. You will also hear the word read aloud. Please repeat the word out loud and then use the picture to figure out what the word might mean. Then, use the space bar to advance to the next trial.

Press space bar to start learning.",4,NounFCT.xlsx,"Now you will be quizzed on the vocabulary you have been introduced to. Use the left and right arrow keys to choose the image on the screen that corresponds to the word.

Press space bar to continue.",NounTest.xlsx,2,"Next, you will be asked to produce what you have learned so far. Type the text that describes the image in the text box. After you have submitted your answer, the correct answer will appear on the screen briefly.

A word bank of the vocabulary is provided for your reference.

Press space bar to continue.",1,"You just completed learning phase 1 of 3. You may take a short break.

Press space when you are ready to continue.",,,,,,CartoonStims/cowboy_r.jpg,mook,CartoonStims/doctor_r.jpg,left,CartoonStims/cowboy_r.jpg,audio/mook.wav,,,,,,0,0,0,0,,,,,0,5,5,3,,,,,,,,,,,,,,,,,,,,,,,,,,,,,,,,,,,,,,,,,,,,,,,,,,,,,,,,,,,,,,,,,,,,,,,,,,,,,,,,,,,,,,,,,,,,,,,,,,,,,,,,,,,,,,,,,0101KH,2019_Jun_06_1200,negexp_reflow,3.1.2,59.88926917353421,
NounExposure.xlsx,"In the first learning phase, you will be shown an image with a word beneath it. You will also hear the word read aloud. Please repeat the word out loud and then use the picture to figure out what the word might mean. Then, use the space bar to advance to the next trial.

Press space bar to start learning.",4,NounFCT.xlsx,"Now you will be quizzed on the vocabulary you have been introduced to. Use the left and right arrow keys to choose the image on the screen that corresponds to the word.

Press space bar to continue.",NounTest.xlsx,2,"Next, you will be asked to produce what you have learned so far. Type the text that describes the image in the text box. After you have submitted your answer, the correct answer will appear on the screen briefly.

A word bank of the vocabulary is provided for your reference.

Press space bar to continue.",1,"You just completed learning phase 1 of 3. You may take a short break.

Press space when you are ready to continue.",,,,,,CartoonStims/chef_r.jpg,falit,CartoonStims/cowboy_r.jpg,left,CartoonStims/chef_r.jpg,audio/falit.wav,,,,,,0,0,0,0,,,,,0,6,6,2,0,0,0,0,,,,,,,,,,,,,,,,,,,,,,,,,,,,,,,,,,,,,,,,,,,,,,,,,,,,,,,310.1971812740012,None,310.1971812740012,None,310.1971812740012,None,left,1,1.3694093270005396,310.4809608840005,None,310.3807254029998,None,311.86774469600095,None,311.86774469600095,None,311.86774469600095,None,,,,,,,,,,,,,,,,,,,,,,,,,,,,,,,,,,,,0101KH,2019_Jun_06_1200,negexp_reflow,3.1.2,59.88926917353421,
NounExposure.xlsx,"In the first learning phase, you will be shown an image with a word beneath it. You will also hear the word read aloud. Please repeat the word out loud and then use the picture to figure out what the word might mean. Then, use the space bar to advance to the next trial.

Press space bar to start learning.",4,NounFCT.xlsx,"Now you will be quizzed on the vocabulary you have been introduced to. Use the left and right arrow keys to choose the image on the screen that corresponds to the word.

Press space bar to continue.",NounTest.xlsx,2,"Next, you will be asked to produce what you have learned so far. Type the text that describes the image in the text box. After you have submitted your answer, the correct answer will appear on the screen briefly.

A word bank of the vocabulary is provided for your reference.

Press space bar to continue.",1,"You just completed learning phase 1 of 3. You may take a short break.

Press space when you are ready to continue.",,,,,,CartoonStims/chef_r.jpg,falit,CartoonStims/cowboy_r.jpg,left,CartoonStims/chef_r.jpg,audio/falit.wav,,,,,,0,0,0,0,,,,,0,6,6,2,,,,,,,,,,,,,,,,,,,,,,,,,,,,,,,,,,,,,,,,,,,,,,,,,,,,,,,,,,,,,,,,,,,,,,,,,,,,,,,,,,,,,,,,,,,,,,,,,,,,,,,,,,,,,,,,,0101KH,2019_Jun_06_1200,negexp_reflow,3.1.2,59.88926917353421,
NounExposure.xlsx,"In the first learning phase, you will be shown an image with a word beneath it. You will also hear the word read aloud. Please repeat the word out loud and then use the picture to figure out what the word might mean. Then, use the space bar to advance to the next trial.

Press space bar to start learning.",4,NounFCT.xlsx,"Now you will be quizzed on the vocabulary you have been introduced to. Use the left and right arrow keys to choose the image on the screen that corresponds to the word.

Press space bar to continue.",NounTest.xlsx,2,"Next, you will be asked to produce what you have learned so far. Type the text that describes the image in the text box. After you have submitted your answer, the correct answer will appear on the screen briefly.

A word bank of the vocabulary is provided for your reference.

Press space bar to continue.",1,"You just completed learning phase 1 of 3. You may take a short break.

Press space when you are ready to continue.",,,,,,CartoonStims/cowboy_r.jpg,ludin,CartoonStims/burglar_r.jpg,right,CartoonStims/burglar_r.jpg,audio/ludin.wav,,,,,,0,0,0,0,,,,,0,7,7,7,,,,,0,0,0,0,,,,,,,,,,,,,,,,,,,,,,,,,,,,,,,,,,,,,,,,,,,,,,,,,,,313.8913886290011,None,313.8913886290011,None,313.8913886290011,None,right,1,1.3146482970005309,314.1906673450012,None,314.0912181010008,None,,,,,,,315.5448017939998,None,315.5448017939998,None,315.5448017939998,None,,,,,,,,,,,,,,,,,,,,,,,,,,,,,,0101KH,2019_Jun_06_1200,negexp_reflow,3.1.2,59.88926917353421,
NounExposure.xlsx,"In the first learning phase, you will be shown an image with a word beneath it. You will also hear the word read aloud. Please repeat the word out loud and then use the picture to figure out what the word might mean. Then, use the space bar to advance to the next trial.

Press space bar to start learning.",4,NounFCT.xlsx,"Now you will be quizzed on the vocabulary you have been introduced to. Use the left and right arrow keys to choose the image on the screen that corresponds to the word.

Press space bar to continue.",NounTest.xlsx,2,"Next, you will be asked to produce what you have learned so far. Type the text that describes the image in the text box. After you have submitted your answer, the correct answer will appear on the screen briefly.

A word bank of the vocabulary is provided for your reference.

Press space bar to continue.",1,"You just completed learning phase 1 of 3. You may take a short break.

Press space when you are ready to continue.",,,,,,CartoonStims/cowboy_r.jpg,ludin,CartoonStims/burglar_r.jpg,right,CartoonStims/burglar_r.jpg,audio/ludin.wav,,,,,,0,0,0,0,,,,,0,7,7,7,,,,,,,,,,,,,,,,,,,,,,,,,,,,,,,,,,,,,,,,,,,,,,,,,,,,,,,,,,,,,,,,,,,,,,,,,,,,,,,,,,,,,,,,,,,,,,,,,,,,,,,,,,,,,,,,,0101KH,2019_Jun_06_1200,negexp_reflow,3.1.2,59.88926917353421,
NounExposure.xlsx,"In the first learning phase, you will be shown an image with a word beneath it. You will also hear the word read aloud. Please repeat the word out loud and then use the picture to figure out what the word might mean. Then, use the space bar to advance to the next trial.

Press space bar to start learning.",4,NounFCT.xlsx,"Now you will be quizzed on the vocabulary you have been introduced to. Use the left and right arrow keys to choose the image on the screen that corresponds to the word.

Press space bar to continue.",NounTest.xlsx,2,"Next, you will be asked to produce what you have learned so far. Type the text that describes the image in the text box. After you have submitted your answer, the correct answer will appear on the screen briefly.

A word bank of the vocabulary is provided for your reference.

Press space bar to continue.",1,"You just completed learning phase 1 of 3. You may take a short break.

Press space when you are ready to continue.",,,,,,CartoonStims/boxer_r.jpg,daki,CartoonStims/artist_r.jpg,left,CartoonStims/boxer_r.jpg,audio/daki.wav,,,,,,0,0,0,0,,,,,0,8,8,5,0,0,0,0,,,,,,,,,,,,,,,,,,,,,,,,,,,,,,,,,,,,,,,,,,,,,,,,,,,,,,,317.551275490001,None,317.551275490001,None,317.551275490001,None,left,1,1.3579137659999105,317.8508210780001,None,317.7509042490001,None,319.23785617700014,None,319.23785617700014,None,319.23785617700014,None,,,,,,,,,,,,,,,,,,,,,,,,,,,,,,,,,,,,0101KH,2019_Jun_06_1200,negexp_reflow,3.1.2,59.88926917353421,
NounExposure.xlsx,"In the first learning phase, you will be shown an image with a word beneath it. You will also hear the word read aloud. Please repeat the word out loud and then use the picture to figure out what the word might mean. Then, use the space bar to advance to the next trial.

Press space bar to start learning.",4,NounFCT.xlsx,"Now you will be quizzed on the vocabulary you have been introduced to. Use the left and right arrow keys to choose the image on the screen that corresponds to the word.

Press space bar to continue.",NounTest.xlsx,2,"Next, you will be asked to produce what you have learned so far. Type the text that describes the image in the text box. After you have submitted your answer, the correct answer will appear on the screen briefly.

A word bank of the vocabulary is provided for your reference.

Press space bar to continue.",1,"You just completed learning phase 1 of 3. You may take a short break.

Press space when you are ready to continue.",,,,,,CartoonStims/boxer_r.jpg,daki,CartoonStims/artist_r.jpg,left,CartoonStims/boxer_r.jpg,audio/daki.wav,,,,,,0,0,0,0,,,,,0,8,8,5,,,,,,,,,,,,,,,,,,,,,,,,,,,,,,,,,,,,,,,,,,,,,,,,,,,,,,,,,,,,,,,,,,,,,,,,,,,,,,,,,,,,,,,,,,,,,,,,,,,,,,,,,,,,,,,,,0101KH,2019_Jun_06_1200,negexp_reflow,3.1.2,59.88926917353421,
NounExposure.xlsx,"In the first learning phase, you will be shown an image with a word beneath it. You will also hear the word read aloud. Please repeat the word out loud and then use the picture to figure out what the word might mean. Then, use the space bar to advance to the next trial.

Press space bar to start learning.",4,NounFCT.xlsx,"Now you will be quizzed on the vocabulary you have been introduced to. Use the left and right arrow keys to choose the image on the screen that corresponds to the word.

Press space bar to continue.",NounTest.xlsx,2,"Next, you will be asked to produce what you have learned so far. Type the text that describes the image in the text box. After you have submitted your answer, the correct answer will appear on the screen briefly.

A word bank of the vocabulary is provided for your reference.

Press space bar to continue.",1,"You just completed learning phase 1 of 3. You may take a short break.

Press space when you are ready to continue.",,,,,,CartoonStims/artist_r.jpg,pepo,CartoonStims/doctor_r.jpg,right,CartoonStims/doctor_r.jpg,audio/pepo.wav,,,,,,0,0,0,0,,,,,0,9,9,10,,,,,0,0,0,0,,,,,,,,,,,,,,,,,,,,,,,,,,,,,,,,,,,,,,,,,,,,,,,,,,,321.25957944200127,None,321.25957944200127,None,321.25957944200127,None,right,1,1.6143882339983975,321.56028446799974,None,321.4602011570005,None,,,,,,,323.1983769890012,None,323.1983769890012,None,323.1983769890012,None,,,,,,,,,,,,,,,,,,,,,,,,,,,,,,0101KH,2019_Jun_06_1200,negexp_reflow,3.1.2,59.88926917353421,
NounExposure.xlsx,"In the first learning phase, you will be shown an image with a word beneath it. You will also hear the word read aloud. Please repeat the word out loud and then use the picture to figure out what the word might mean. Then, use the space bar to advance to the next trial.

Press space bar to start learning.",4,NounFCT.xlsx,"Now you will be quizzed on the vocabulary you have been introduced to. Use the left and right arrow keys to choose the image on the screen that corresponds to the word.

Press space bar to continue.",NounTest.xlsx,2,"Next, you will be asked to produce what you have learned so far. Type the text that describes the image in the text box. After you have submitted your answer, the correct answer will appear on the screen briefly.

A word bank of the vocabulary is provided for your reference.

Press space bar to continue.",1,"You just completed learning phase 1 of 3. You may take a short break.

Press space when you are ready to continue.",,,,,,CartoonStims/artist_r.jpg,pepo,CartoonStims/doctor_r.jpg,right,CartoonStims/doctor_r.jpg,audio/pepo.wav,,,,,,0,0,0,0,,,,,0,9,9,10,,,,,,,,,,,,,,,,,,,,,,,,,,,,,,,,,,,,,,,,,,,,,,,,,,,,,,,,,,,,,,,,,,,,,,,,,,,,,,,,,,,,,,,,,,,,,,,,,,,,,,,,,,,,,,,,,0101KH,2019_Jun_06_1200,negexp_reflow,3.1.2,59.88926917353421,
NounExposure.xlsx,"In the first learning phase, you will be shown an image with a word beneath it. You will also hear the word read aloud. Please repeat the word out loud and then use the picture to figure out what the word might mean. Then, use the space bar to advance to the next trial.

Press space bar to start learning.",4,NounFCT.xlsx,"Now you will be quizzed on the vocabulary you have been introduced to. Use the left and right arrow keys to choose the image on the screen that corresponds to the word.

Press space bar to continue.",NounTest.xlsx,2,"Next, you will be asked to produce what you have learned so far. Type the text that describes the image in the text box. After you have submitted your answer, the correct answer will appear on the screen briefly.

A word bank of the vocabulary is provided for your reference.

Press space bar to continue.",1,"You just completed learning phase 1 of 3. You may take a short break.

Press space when you are ready to continue.",,,,,,CartoonStims/burglar_r.jpg,ludin,CartoonStims/chef_r.jpg,left,CartoonStims/burglar_r.jpg,audio/ludin.wav,,,,,,0,0,0,0,,,,,0,10,10,1,0,0,0,0,,,,,,,,,,,,,,,,,,,,,,,,,,,,,,,,,,,,,,,,,,,,,,,,,,,,,,,325.2367441530005,None,325.2367441530005,None,325.2367441530005,None,left,1,0.933028490999277,325.5213328460013,None,325.42125293000026,None,326.47330371300086,None,326.47330371300086,None,326.47330371300086,None,,,,,,,,,,,,,,,,,,,,,,,,,,,,,,,,,,,,0101KH,2019_Jun_06_1200,negexp_reflow,3.1.2,59.88926917353421,
NounExposure.xlsx,"In the first learning phase, you will be shown an image with a word beneath it. You will also hear the word read aloud. Please repeat the word out loud and then use the picture to figure out what the word might mean. Then, use the space bar to advance to the next trial.

Press space bar to start learning.",4,NounFCT.xlsx,"Now you will be quizzed on the vocabulary you have been introduced to. Use the left and right arrow keys to choose the image on the screen that corresponds to the word.

Press space bar to continue.",NounTest.xlsx,2,"Next, you will be asked to produce what you have learned so far. Type the text that describes the image in the text box. After you have submitted your answer, the correct answer will appear on the screen briefly.

A word bank of the vocabulary is provided for your reference.

Press space bar to continue.",1,"You just completed learning phase 1 of 3. You may take a short break.

Press space when you are ready to continue.",,,,,,CartoonStims/burglar_r.jpg,ludin,CartoonStims/chef_r.jpg,left,CartoonStims/burglar_r.jpg,audio/ludin.wav,,,,,,0,0,0,0,,,,,0,10,10,1,,,,,,,,,,,,,,,,,,,,,,,,,,,,,,,,,,,,,,,,,,,,,,,,,,,,,,,,,,,,,,,,,,,,,,,,,,,,,,,,,,,,,,,,,,,,,,,,,,,,,,,,,,,,,,,,,0101KH,2019_Jun_06_1200,negexp_reflow,3.1.2,59.88926917353421,
NounExposure.xlsx,"In the first learning phase, you will be shown an image with a word beneath it. You will also hear the word read aloud. Please repeat the word out loud and then use the picture to figure out what the word might mean. Then, use the space bar to advance to the next trial.

Press space bar to start learning.",4,NounFCT.xlsx,"Now you will be quizzed on the vocabulary you have been introduced to. Use the left and right arrow keys to choose the image on the screen that corresponds to the word.

Press space bar to continue.",NounTest.xlsx,2,"Next, you will be asked to produce what you have learned so far. Type the text that describes the image in the text box. After you have submitted your answer, the correct answer will appear on the screen briefly.

A word bank of the vocabulary is provided for your reference.

Press space bar to continue.",1,"You just completed learning phase 1 of 3. You may take a short break.

Press space when you are ready to continue.",,,,,,CartoonStims/burglar_r.jpg,daki,CartoonStims/boxer_r.jpg,right,CartoonStims/boxer_r.jpg,audio/daki.wav,,,,,,0,0,0,0,,,,,0,11,11,11,,,,,0,0,0,0,,,,,,,,,,,,,,,,,,,,,,,,,,,,,,,,,,,,,,,,,,,,,,,,,,,328.51291519500046,None,328.51291519500046,None,328.51291519500046,None,right,1,0.7713534960003017,328.79698099800044,None,328.69585604700114,None,,,,,,,329.5995051460013,None,329.5995051460013,None,329.5995051460013,None,,,,,,,,,,,,,,,,,,,,,,,,,,,,,,0101KH,2019_Jun_06_1200,negexp_reflow,3.1.2,59.88926917353421,
NounExposure.xlsx,"In the first learning phase, you will be shown an image with a word beneath it. You will also hear the word read aloud. Please repeat the word out loud and then use the picture to figure out what the word might mean. Then, use the space bar to advance to the next trial.

Press space bar to start learning.",4,NounFCT.xlsx,"Now you will be quizzed on the vocabulary you have been introduced to. Use the left and right arrow keys to choose the image on the screen that corresponds to the word.

Press space bar to continue.",NounTest.xlsx,2,"Next, you will be asked to produce what you have learned so far. Type the text that describes the image in the text box. After you have submitted your answer, the correct answer will appear on the screen briefly.

A word bank of the vocabulary is provided for your reference.

Press space bar to continue.",1,"You just completed learning phase 1 of 3. You may take a short break.

Press space when you are ready to continue.",,,,,,CartoonStims/burglar_r.jpg,daki,CartoonStims/boxer_r.jpg,right,CartoonStims/boxer_r.jpg,audio/daki.wav,,,,,,0,0,0,0,,,,,0,11,11,11,,,,,,,,,,,,,,,,,,,,,,,,,,,,,,,,,,,,,,,,,,,,,,,,,,,,,,,,,,,,,,,,,,,,,,,,,,,,,,,,,,,,,,,,,,,,,,,,,,,,,,,,,,,,,,,,,0101KH,2019_Jun_06_1200,negexp_reflow,3.1.2,59.88926917353421,
NounExposure.xlsx,"In the first learning phase, you will be shown an image with a word beneath it. You will also hear the word read aloud. Please repeat the word out loud and then use the picture to figure out what the word might mean. Then, use the space bar to advance to the next trial.

Press space bar to start learning.",4,NounFCT.xlsx,"Now you will be quizzed on the vocabulary you have been introduced to. Use the left and right arrow keys to choose the image on the screen that corresponds to the word.

Press space bar to continue.",NounTest.xlsx,2,"Next, you will be asked to produce what you have learned so far. Type the text that describes the image in the text box. After you have submitted your answer, the correct answer will appear on the screen briefly.

A word bank of the vocabulary is provided for your reference.

Press space bar to continue.",1,"You just completed learning phase 1 of 3. You may take a short break.

Press space when you are ready to continue.",,,,CartoonStims/burglar_r.jpg,audio/ludin.wav,,,,,,,ludin,"Wordbank

daki  falit
ludin  mook
pepo  sido ",,,,0,0,0,0,,,,,,,,,,,,,,,,,,,,,,,,,0,0,0,1,0,0,0,0,,,,,,,,,,,,,,,,,,,,,,,,,,,,,,,,,,,,,,,,,,,,,,,,,,,,,,,,,,,,331.6537594069996,None,space,10.905143325000608,332.12280124100107,None,343.084515681001,None,343.084515681001,None,ludin,343.084515681001,None,343.084515681001,None,343.084515681001,None,349.3692980200012,None,349.3692980200012,None,349.3692980200012,None,,,,,,,0101KH,2019_Jun_06_1200,negexp_reflow,3.1.2,59.88926917353421,
NounExposure.xlsx,"In the first learning phase, you will be shown an image with a word beneath it. You will also hear the word read aloud. Please repeat the word out loud and then use the picture to figure out what the word might mean. Then, use the space bar to advance to the next trial.

Press space bar to start learning.",4,NounFCT.xlsx,"Now you will be quizzed on the vocabulary you have been introduced to. Use the left and right arrow keys to choose the image on the screen that corresponds to the word.

Press space bar to continue.",NounTest.xlsx,2,"Next, you will be asked to produce what you have learned so far. Type the text that describes the image in the text box. After you have submitted your answer, the correct answer will appear on the screen briefly.

A word bank of the vocabulary is provided for your reference.

Press space bar to continue.",1,"You just completed learning phase 1 of 3. You may take a short break.

Press space when you are ready to continue.",,,,CartoonStims/burglar_r.jpg,audio/ludin.wav,,,,,,,ludin,"Wordbank

daki  falit
ludin  mook
pepo  sido ",,,,0,0,0,0,,,,,,,,,,,,,,,,,,,,,,,,,0,0,0,1,,,,,,,,,,,,,,,,,,,,,,,,,,,,,,,,,,,,,,,,,,,,,,,,,,,,,,,,,,,,,,,,,,,,,,,,,,,,,,,,,,,,,,,,,,,,,0101KH,2019_Jun_06_1200,negexp_reflow,3.1.2,59.88926917353421,
NounExposure.xlsx,"In the first learning phase, you will be shown an image with a word beneath it. You will also hear the word read aloud. Please repeat the word out loud and then use the picture to figure out what the word might mean. Then, use the space bar to advance to the next trial.

Press space bar to start learning.",4,NounFCT.xlsx,"Now you will be quizzed on the vocabulary you have been introduced to. Use the left and right arrow keys to choose the image on the screen that corresponds to the word.

Press space bar to continue.",NounTest.xlsx,2,"Next, you will be asked to produce what you have learned so far. Type the text that describes the image in the text box. After you have submitted your answer, the correct answer will appear on the screen briefly.

A word bank of the vocabulary is provided for your reference.

Press space bar to continue.",1,"You just completed learning phase 1 of 3. You may take a short break.

Press space when you are ready to continue.",,,,CartoonStims/cowboy_r.jpg,audio/mook.wav,,,,,,,mook,"Wordbank

daki  falit
ludin  mook
pepo  sido ",,,,0,0,0,0,,,,,,,,,,,,,,,,,,,,,,,,,0,1,1,3,0,0,0,0,,,,,,,,,,,,,,,,,,,,,,,,,,,,,,,,,,,,,,,,,,,,,,,,,,,,,,,,,,,,,,,,,,352.35956765100127,None,352.35956765100127,None,mook,352.35956765100127,None,352.35956765100127,None,352.35956765100127,None,355.80231790700054,None,355.80231790700054,None,355.80231790700054,None,,,,,,,0101KH,2019_Jun_06_1200,negexp_reflow,3.1.2,59.88926917353421,
NounExposure.xlsx,"In the first learning phase, you will be shown an image with a word beneath it. You will also hear the word read aloud. Please repeat the word out loud and then use the picture to figure out what the word might mean. Then, use the space bar to advance to the next trial.

Press space bar to start learning.",4,NounFCT.xlsx,"Now you will be quizzed on the vocabulary you have been introduced to. Use the left and right arrow keys to choose the image on the screen that corresponds to the word.

Press space bar to continue.",NounTest.xlsx,2,"Next, you will be asked to produce what you have learned so far. Type the text that describes the image in the text box. After you have submitted your answer, the correct answer will appear on the screen briefly.

A word bank of the vocabulary is provided for your reference.

Press space bar to continue.",1,"You just completed learning phase 1 of 3. You may take a short break.

Press space when you are ready to continue.",,,,CartoonStims/cowboy_r.jpg,audio/mook.wav,,,,,,,mook,"Wordbank

daki  falit
ludin  mook
pepo  sido ",,,,0,0,0,0,,,,,,,,,,,,,,,,,,,,,,,,,0,1,1,3,,,,,,,,,,,,,,,,,,,,,,,,,,,,,,,,,,,,,,,,,,,,,,,,,,,,,,,,,,,,,,,,,,,,,,,,,,,,,,,,,,,,,,,,,,,,,0101KH,2019_Jun_06_1200,negexp_reflow,3.1.2,59.88926917353421,
NounExposure.xlsx,"In the first learning phase, you will be shown an image with a word beneath it. You will also hear the word read aloud. Please repeat the word out loud and then use the picture to figure out what the word might mean. Then, use the space bar to advance to the next trial.

Press space bar to start learning.",4,NounFCT.xlsx,"Now you will be quizzed on the vocabulary you have been introduced to. Use the left and right arrow keys to choose the image on the screen that corresponds to the word.

Press space bar to continue.",NounTest.xlsx,2,"Next, you will be asked to produce what you have learned so far. Type the text that describes the image in the text box. After you have submitted your answer, the correct answer will appear on the screen briefly.

A word bank of the vocabulary is provided for your reference.

Press space bar to continue.",1,"You just completed learning phase 1 of 3. You may take a short break.

Press space when you are ready to continue.",,,,CartoonStims/boxer_r.jpg,audio/daki.wav,,,,,,,daki,"Wordbank

daki  falit
ludin  mook
pepo  sido ",,,,0,0,0,0,,,,,,,,,,,,,,,,,,,,,,,,,0,2,2,5,0,0,0,0,,,,,,,,,,,,,,,,,,,,,,,,,,,,,,,,,,,,,,,,,,,,,,,,,,,,,,,,,,,,,,,,,,358.7934793660006,None,358.7934793660006,None,daki,358.7934793660006,None,358.7934793660006,None,358.7934793660006,None,361.5676291390009,None,361.5676291390009,None,361.5676291390009,None,,,,,,,0101KH,2019_Jun_06_1200,negexp_reflow,3.1.2,59.88926917353421,
NounExposure.xlsx,"In the first learning phase, you will be shown an image with a word beneath it. You will also hear the word read aloud. Please repeat the word out loud and then use the picture to figure out what the word might mean. Then, use the space bar to advance to the next trial.

Press space bar to start learning.",4,NounFCT.xlsx,"Now you will be quizzed on the vocabulary you have been introduced to. Use the left and right arrow keys to choose the image on the screen that corresponds to the word.

Press space bar to continue.",NounTest.xlsx,2,"Next, you will be asked to produce what you have learned so far. Type the text that describes the image in the text box. After you have submitted your answer, the correct answer will appear on the screen briefly.

A word bank of the vocabulary is provided for your reference.

Press space bar to continue.",1,"You just completed learning phase 1 of 3. You may take a short break.

Press space when you are ready to continue.",,,,CartoonStims/boxer_r.jpg,audio/daki.wav,,,,,,,daki,"Wordbank

daki  falit
ludin  mook
pepo  sido ",,,,0,0,0,0,,,,,,,,,,,,,,,,,,,,,,,,,0,2,2,5,,,,,,,,,,,,,,,,,,,,,,,,,,,,,,,,,,,,,,,,,,,,,,,,,,,,,,,,,,,,,,,,,,,,,,,,,,,,,,,,,,,,,,,,,,,,,0101KH,2019_Jun_06_1200,negexp_reflow,3.1.2,59.88926917353421,
NounExposure.xlsx,"In the first learning phase, you will be shown an image with a word beneath it. You will also hear the word read aloud. Please repeat the word out loud and then use the picture to figure out what the word might mean. Then, use the space bar to advance to the next trial.

Press space bar to start learning.",4,NounFCT.xlsx,"Now you will be quizzed on the vocabulary you have been introduced to. Use the left and right arrow keys to choose the image on the screen that corresponds to the word.

Press space bar to continue.",NounTest.xlsx,2,"Next, you will be asked to produce what you have learned so far. Type the text that describes the image in the text box. After you have submitted your answer, the correct answer will appear on the screen briefly.

A word bank of the vocabulary is provided for your reference.

Press space bar to continue.",1,"You just completed learning phase 1 of 3. You may take a short break.

Press space when you are ready to continue.",,,,CartoonStims/doctor_r.jpg,audio/pepo.wav,,,,,,,pepo,"Wordbank

daki  falit
ludin  mook
pepo  sido ",,,,0,0,0,0,,,,,,,,,,,,,,,,,,,,,,,,,0,3,3,4,0,0,0,0,,,,,,,,,,,,,,,,,,,,,,,,,,,,,,,,,,,,,,,,,,,,,,,,,,,,,,,,,,,,,,,,,,364.5592006700008,None,364.5592006700008,None,pepo,364.5592006700008,None,364.5592006700008,None,364.5592006700008,None,368.18514504199993,None,368.18514504199993,None,368.18514504199993,None,,,,,,,0101KH,2019_Jun_06_1200,negexp_reflow,3.1.2,59.88926917353421,
NounExposure.xlsx,"In the first learning phase, you will be shown an image with a word beneath it. You will also hear the word read aloud. Please repeat the word out loud and then use the picture to figure out what the word might mean. Then, use the space bar to advance to the next trial.

Press space bar to start learning.",4,NounFCT.xlsx,"Now you will be quizzed on the vocabulary you have been introduced to. Use the left and right arrow keys to choose the image on the screen that corresponds to the word.

Press space bar to continue.",NounTest.xlsx,2,"Next, you will be asked to produce what you have learned so far. Type the text that describes the image in the text box. After you have submitted your answer, the correct answer will appear on the screen briefly.

A word bank of the vocabulary is provided for your reference.

Press space bar to continue.",1,"You just completed learning phase 1 of 3. You may take a short break.

Press space when you are ready to continue.",,,,CartoonStims/doctor_r.jpg,audio/pepo.wav,,,,,,,pepo,"Wordbank

daki  falit
ludin  mook
pepo  sido ",,,,0,0,0,0,,,,,,,,,,,,,,,,,,,,,,,,,0,3,3,4,,,,,,,,,,,,,,,,,,,,,,,,,,,,,,,,,,,,,,,,,,,,,,,,,,,,,,,,,,,,,,,,,,,,,,,,,,,,,,,,,,,,,,,,,,,,,0101KH,2019_Jun_06_1200,negexp_reflow,3.1.2,59.88926917353421,
NounExposure.xlsx,"In the first learning phase, you will be shown an image with a word beneath it. You will also hear the word read aloud. Please repeat the word out loud and then use the picture to figure out what the word might mean. Then, use the space bar to advance to the next trial.

Press space bar to start learning.",4,NounFCT.xlsx,"Now you will be quizzed on the vocabulary you have been introduced to. Use the left and right arrow keys to choose the image on the screen that corresponds to the word.

Press space bar to continue.",NounTest.xlsx,2,"Next, you will be asked to produce what you have learned so far. Type the text that describes the image in the text box. After you have submitted your answer, the correct answer will appear on the screen briefly.

A word bank of the vocabulary is provided for your reference.

Press space bar to continue.",1,"You just completed learning phase 1 of 3. You may take a short break.

Press space when you are ready to continue.",,,,CartoonStims/artist_r.jpg,audio/sido.wav,,,,,,,sido,"Wordbank

daki  falit
ludin  mook
pepo  sido ",,,,0,0,0,0,,,,,,,,,,,,,,,,,,,,,,,,,0,4,4,0,0,0,0,0,,,,,,,,,,,,,,,,,,,,,,,,,,,,,,,,,,,,,,,,,,,,,,,,,,,,,,,,,,,,,,,,,,371.1769705450006,None,371.1769705450006,None,sido,371.1769705450006,None,371.1769705450006,None,371.1769705450006,None,376.60813169500034,None,376.60813169500034,None,376.60813169500034,None,,,,,,,0101KH,2019_Jun_06_1200,negexp_reflow,3.1.2,59.88926917353421,
NounExposure.xlsx,"In the first learning phase, you will be shown an image with a word beneath it. You will also hear the word read aloud. Please repeat the word out loud and then use the picture to figure out what the word might mean. Then, use the space bar to advance to the next trial.

Press space bar to start learning.",4,NounFCT.xlsx,"Now you will be quizzed on the vocabulary you have been introduced to. Use the left and right arrow keys to choose the image on the screen that corresponds to the word.

Press space bar to continue.",NounTest.xlsx,2,"Next, you will be asked to produce what you have learned so far. Type the text that describes the image in the text box. After you have submitted your answer, the correct answer will appear on the screen briefly.

A word bank of the vocabulary is provided for your reference.

Press space bar to continue.",1,"You just completed learning phase 1 of 3. You may take a short break.

Press space when you are ready to continue.",,,,CartoonStims/artist_r.jpg,audio/sido.wav,,,,,,,sido,"Wordbank

daki  falit
ludin  mook
pepo  sido ",,,,0,0,0,0,,,,,,,,,,,,,,,,,,,,,,,,,0,4,4,0,,,,,,,,,,,,,,,,,,,,,,,,,,,,,,,,,,,,,,,,,,,,,,,,,,,,,,,,,,,,,,,,,,,,,,,,,,,,,,,,,,,,,,,,,,,,,0101KH,2019_Jun_06_1200,negexp_reflow,3.1.2,59.88926917353421,
NounExposure.xlsx,"In the first learning phase, you will be shown an image with a word beneath it. You will also hear the word read aloud. Please repeat the word out loud and then use the picture to figure out what the word might mean. Then, use the space bar to advance to the next trial.

Press space bar to start learning.",4,NounFCT.xlsx,"Now you will be quizzed on the vocabulary you have been introduced to. Use the left and right arrow keys to choose the image on the screen that corresponds to the word.

Press space bar to continue.",NounTest.xlsx,2,"Next, you will be asked to produce what you have learned so far. Type the text that describes the image in the text box. After you have submitted your answer, the correct answer will appear on the screen briefly.

A word bank of the vocabulary is provided for your reference.

Press space bar to continue.",1,"You just completed learning phase 1 of 3. You may take a short break.

Press space when you are ready to continue.",,,,CartoonStims/chef_r.jpg,audio/falit.wav,,,,,,,falit,"Wordbank

daki  falit
ludin  mook
pepo  sido ",,,,0,0,0,0,,,,,,,,,,,,,,,,,,,,,,,,,0,5,5,2,0,0,0,0,,,,,,,,,,,,,,,,,,,,,,,,,,,,,,,,,,,,,,,,,,,,,,,,,,,,,,,,,,,,,,,,,,379.5989177499996,None,379.5989177499996,None,falit,379.5989177499996,None,379.5989177499996,None,379.5989177499996,None,382.7083119760009,None,382.7083119760009,None,382.7083119760009,None,,,,,,,0101KH,2019_Jun_06_1200,negexp_reflow,3.1.2,59.88926917353421,
NounExposure.xlsx,"In the first learning phase, you will be shown an image with a word beneath it. You will also hear the word read aloud. Please repeat the word out loud and then use the picture to figure out what the word might mean. Then, use the space bar to advance to the next trial.

Press space bar to start learning.",4,NounFCT.xlsx,"Now you will be quizzed on the vocabulary you have been introduced to. Use the left and right arrow keys to choose the image on the screen that corresponds to the word.

Press space bar to continue.",NounTest.xlsx,2,"Next, you will be asked to produce what you have learned so far. Type the text that describes the image in the text box. After you have submitted your answer, the correct answer will appear on the screen briefly.

A word bank of the vocabulary is provided for your reference.

Press space bar to continue.",1,"You just completed learning phase 1 of 3. You may take a short break.

Press space when you are ready to continue.",,,,CartoonStims/chef_r.jpg,audio/falit.wav,,,,,,,falit,"Wordbank

daki  falit
ludin  mook
pepo  sido ",,,,0,0,0,0,,,,,,,,,,,,,,,,,,,,,,,,,0,5,5,2,,,,,,,,,,,,,,,,,,,,,,,,,,,,,,,,,,,,,,,,,,,,,,,,,,,,,,,,,,,,,,,,,,,,,,,,,,,,,,,,,,,,,,,,,,,,,0101KH,2019_Jun_06_1200,negexp_reflow,3.1.2,59.88926917353421,
NounExposure.xlsx,"In the first learning phase, you will be shown an image with a word beneath it. You will also hear the word read aloud. Please repeat the word out loud and then use the picture to figure out what the word might mean. Then, use the space bar to advance to the next trial.

Press space bar to start learning.",4,NounFCT.xlsx,"Now you will be quizzed on the vocabulary you have been introduced to. Use the left and right arrow keys to choose the image on the screen that corresponds to the word.

Press space bar to continue.",NounTest.xlsx,2,"Next, you will be asked to produce what you have learned so far. Type the text that describes the image in the text box. After you have submitted your answer, the correct answer will appear on the screen briefly.

A word bank of the vocabulary is provided for your reference.

Press space bar to continue.",1,"You just completed learning phase 1 of 3. You may take a short break.

Press space when you are ready to continue.",,,,CartoonStims/burglar_r.jpg,audio/ludin.wav,,,,,,,ludin,"Wordbank

daki  falit
ludin  mook
pepo  sido ",,,,0,0,0,0,,,,,,,,,,,,,,,,,,,,,,,,,1,0,6,1,0,0,0,0,,,,,,,,,,,,,,,,,,,,,,,,,,,,,,,,,,,,,,,,,,,,,,,,,,,,,,,,,,,,,,,,,,385.6977994589997,None,385.6977994589997,None,ludin,385.6977994589997,None,385.6977994589997,None,385.6977994589997,None,388.67382951200125,None,388.67382951200125,None,388.67382951200125,None,,,,,,,0101KH,2019_Jun_06_1200,negexp_reflow,3.1.2,59.88926917353421,
NounExposure.xlsx,"In the first learning phase, you will be shown an image with a word beneath it. You will also hear the word read aloud. Please repeat the word out loud and then use the picture to figure out what the word might mean. Then, use the space bar to advance to the next trial.

Press space bar to start learning.",4,NounFCT.xlsx,"Now you will be quizzed on the vocabulary you have been introduced to. Use the left and right arrow keys to choose the image on the screen that corresponds to the word.

Press space bar to continue.",NounTest.xlsx,2,"Next, you will be asked to produce what you have learned so far. Type the text that describes the image in the text box. After you have submitted your answer, the correct answer will appear on the screen briefly.

A word bank of the vocabulary is provided for your reference.

Press space bar to continue.",1,"You just completed learning phase 1 of 3. You may take a short break.

Press space when you are ready to continue.",,,,CartoonStims/burglar_r.jpg,audio/ludin.wav,,,,,,,ludin,"Wordbank

daki  falit
ludin  mook
pepo  sido ",,,,0,0,0,0,,,,,,,,,,,,,,,,,,,,,,,,,1,0,6,1,,,,,,,,,,,,,,,,,,,,,,,,,,,,,,,,,,,,,,,,,,,,,,,,,,,,,,,,,,,,,,,,,,,,,,,,,,,,,,,,,,,,,,,,,,,,,0101KH,2019_Jun_06_1200,negexp_reflow,3.1.2,59.88926917353421,
NounExposure.xlsx,"In the first learning phase, you will be shown an image with a word beneath it. You will also hear the word read aloud. Please repeat the word out loud and then use the picture to figure out what the word might mean. Then, use the space bar to advance to the next trial.

Press space bar to start learning.",4,NounFCT.xlsx,"Now you will be quizzed on the vocabulary you have been introduced to. Use the left and right arrow keys to choose the image on the screen that corresponds to the word.

Press space bar to continue.",NounTest.xlsx,2,"Next, you will be asked to produce what you have learned so far. Type the text that describes the image in the text box. After you have submitted your answer, the correct answer will appear on the screen briefly.

A word bank of the vocabulary is provided for your reference.

Press space bar to continue.",1,"You just completed learning phase 1 of 3. You may take a short break.

Press space when you are ready to continue.",,,,CartoonStims/boxer_r.jpg,audio/daki.wav,,,,,,,daki,"Wordbank

daki  falit
ludin  mook
pepo  sido ",,,,0,0,0,0,,,,,,,,,,,,,,,,,,,,,,,,,1,1,7,5,0,0,0,0,,,,,,,,,,,,,,,,,,,,,,,,,,,,,,,,,,,,,,,,,,,,,,,,,,,,,,,,,,,,,,,,,,391.6648659170005,None,391.6648659170005,None,daki,391.6648659170005,None,391.6648659170005,None,391.6648659170005,None,394.9251104190007,None,394.9251104190007,None,394.9251104190007,None,,,,,,,0101KH,2019_Jun_06_1200,negexp_reflow,3.1.2,59.88926917353421,
NounExposure.xlsx,"In the first learning phase, you will be shown an image with a word beneath it. You will also hear the word read aloud. Please repeat the word out loud and then use the picture to figure out what the word might mean. Then, use the space bar to advance to the next trial.

Press space bar to start learning.",4,NounFCT.xlsx,"Now you will be quizzed on the vocabulary you have been introduced to. Use the left and right arrow keys to choose the image on the screen that corresponds to the word.

Press space bar to continue.",NounTest.xlsx,2,"Next, you will be asked to produce what you have learned so far. Type the text that describes the image in the text box. After you have submitted your answer, the correct answer will appear on the screen briefly.

A word bank of the vocabulary is provided for your reference.

Press space bar to continue.",1,"You just completed learning phase 1 of 3. You may take a short break.

Press space when you are ready to continue.",,,,CartoonStims/boxer_r.jpg,audio/daki.wav,,,,,,,daki,"Wordbank

daki  falit
ludin  mook
pepo  sido ",,,,0,0,0,0,,,,,,,,,,,,,,,,,,,,,,,,,1,1,7,5,,,,,,,,,,,,,,,,,,,,,,,,,,,,,,,,,,,,,,,,,,,,,,,,,,,,,,,,,,,,,,,,,,,,,,,,,,,,,,,,,,,,,,,,,,,,,0101KH,2019_Jun_06_1200,negexp_reflow,3.1.2,59.88926917353421,
NounExposure.xlsx,"In the first learning phase, you will be shown an image with a word beneath it. You will also hear the word read aloud. Please repeat the word out loud and then use the picture to figure out what the word might mean. Then, use the space bar to advance to the next trial.

Press space bar to start learning.",4,NounFCT.xlsx,"Now you will be quizzed on the vocabulary you have been introduced to. Use the left and right arrow keys to choose the image on the screen that corresponds to the word.

Press space bar to continue.",NounTest.xlsx,2,"Next, you will be asked to produce what you have learned so far. Type the text that describes the image in the text box. After you have submitted your answer, the correct answer will appear on the screen briefly.

A word bank of the vocabulary is provided for your reference.

Press space bar to continue.",1,"You just completed learning phase 1 of 3. You may take a short break.

Press space when you are ready to continue.",,,,CartoonStims/chef_r.jpg,audio/falit.wav,,,,,,,falit,"Wordbank

daki  falit
ludin  mook
pepo  sido ",,,,0,0,0,0,,,,,,,,,,,,,,,,,,,,,,,,,1,2,8,2,0,0,0,0,,,,,,,,,,,,,,,,,,,,,,,,,,,,,,,,,,,,,,,,,,,,,,,,,,,,,,,,,,,,,,,,,,397.9310157159998,None,397.9310157159998,None,falit,397.9310157159998,None,397.9310157159998,None,397.9310157159998,None,401.4243888230012,None,401.4243888230012,None,401.4243888230012,None,,,,,,,0101KH,2019_Jun_06_1200,negexp_reflow,3.1.2,59.88926917353421,
NounExposure.xlsx,"In the first learning phase, you will be shown an image with a word beneath it. You will also hear the word read aloud. Please repeat the word out loud and then use the picture to figure out what the word might mean. Then, use the space bar to advance to the next trial.

Press space bar to start learning.",4,NounFCT.xlsx,"Now you will be quizzed on the vocabulary you have been introduced to. Use the left and right arrow keys to choose the image on the screen that corresponds to the word.

Press space bar to continue.",NounTest.xlsx,2,"Next, you will be asked to produce what you have learned so far. Type the text that describes the image in the text box. After you have submitted your answer, the correct answer will appear on the screen briefly.

A word bank of the vocabulary is provided for your reference.

Press space bar to continue.",1,"You just completed learning phase 1 of 3. You may take a short break.

Press space when you are ready to continue.",,,,CartoonStims/chef_r.jpg,audio/falit.wav,,,,,,,falit,"Wordbank

daki  falit
ludin  mook
pepo  sido ",,,,0,0,0,0,,,,,,,,,,,,,,,,,,,,,,,,,1,2,8,2,,,,,,,,,,,,,,,,,,,,,,,,,,,,,,,,,,,,,,,,,,,,,,,,,,,,,,,,,,,,,,,,,,,,,,,,,,,,,,,,,,,,,,,,,,,,,0101KH,2019_Jun_06_1200,negexp_reflow,3.1.2,59.88926917353421,
NounExposure.xlsx,"In the first learning phase, you will be shown an image with a word beneath it. You will also hear the word read aloud. Please repeat the word out loud and then use the picture to figure out what the word might mean. Then, use the space bar to advance to the next trial.

Press space bar to start learning.",4,NounFCT.xlsx,"Now you will be quizzed on the vocabulary you have been introduced to. Use the left and right arrow keys to choose the image on the screen that corresponds to the word.

Press space bar to continue.",NounTest.xlsx,2,"Next, you will be asked to produce what you have learned so far. Type the text that describes the image in the text box. After you have submitted your answer, the correct answer will appear on the screen briefly.

A word bank of the vocabulary is provided for your reference.

Press space bar to continue.",1,"You just completed learning phase 1 of 3. You may take a short break.

Press space when you are ready to continue.",,,,CartoonStims/doctor_r.jpg,audio/pepo.wav,,,,,,,pepo,"Wordbank

daki  falit
ludin  mook
pepo  sido ",,,,0,0,0,0,,,,,,,,,,,,,,,,,,,,,,,,,1,3,9,4,0,0,0,0,,,,,,,,,,,,,,,,,,,,,,,,,,,,,,,,,,,,,,,,,,,,,,,,,,,,,,,,,,,,,,,,,,404.4152339230004,None,404.4152339230004,None,pepo,404.4152339230004,None,404.4152339230004,None,404.4152339230004,None,409.8136260120009,None,409.8136260120009,None,409.8136260120009,None,,,,,,,0101KH,2019_Jun_06_1200,negexp_reflow,3.1.2,59.88926917353421,
NounExposure.xlsx,"In the first learning phase, you will be shown an image with a word beneath it. You will also hear the word read aloud. Please repeat the word out loud and then use the picture to figure out what the word might mean. Then, use the space bar to advance to the next trial.

Press space bar to start learning.",4,NounFCT.xlsx,"Now you will be quizzed on the vocabulary you have been introduced to. Use the left and right arrow keys to choose the image on the screen that corresponds to the word.

Press space bar to continue.",NounTest.xlsx,2,"Next, you will be asked to produce what you have learned so far. Type the text that describes the image in the text box. After you have submitted your answer, the correct answer will appear on the screen briefly.

A word bank of the vocabulary is provided for your reference.

Press space bar to continue.",1,"You just completed learning phase 1 of 3. You may take a short break.

Press space when you are ready to continue.",,,,CartoonStims/doctor_r.jpg,audio/pepo.wav,,,,,,,pepo,"Wordbank

daki  falit
ludin  mook
pepo  sido ",,,,0,0,0,0,,,,,,,,,,,,,,,,,,,,,,,,,1,3,9,4,,,,,,,,,,,,,,,,,,,,,,,,,,,,,,,,,,,,,,,,,,,,,,,,,,,,,,,,,,,,,,,,,,,,,,,,,,,,,,,,,,,,,,,,,,,,,0101KH,2019_Jun_06_1200,negexp_reflow,3.1.2,59.88926917353421,
NounExposure.xlsx,"In the first learning phase, you will be shown an image with a word beneath it. You will also hear the word read aloud. Please repeat the word out loud and then use the picture to figure out what the word might mean. Then, use the space bar to advance to the next trial.

Press space bar to start learning.",4,NounFCT.xlsx,"Now you will be quizzed on the vocabulary you have been introduced to. Use the left and right arrow keys to choose the image on the screen that corresponds to the word.

Press space bar to continue.",NounTest.xlsx,2,"Next, you will be asked to produce what you have learned so far. Type the text that describes the image in the text box. After you have submitted your answer, the correct answer will appear on the screen briefly.

A word bank of the vocabulary is provided for your reference.

Press space bar to continue.",1,"You just completed learning phase 1 of 3. You may take a short break.

Press space when you are ready to continue.",,,,CartoonStims/cowboy_r.jpg,audio/mook.wav,,,,,,,mook,"Wordbank

daki  falit
ludin  mook
pepo  sido ",,,,0,0,0,0,,,,,,,,,,,,,,,,,,,,,,,,,1,4,10,3,0,0,0,0,,,,,,,,,,,,,,,,,,,,,,,,,,,,,,,,,,,,,,,,,,,,,,,,,,,,,,,,,,,,,,,,,,412.8051621800005,None,412.8051621800005,None,mook,412.8051621800005,None,412.8051621800005,None,412.8051621800005,None,415.36137259099996,None,415.36137259099996,None,415.36137259099996,None,,,,,,,0101KH,2019_Jun_06_1200,negexp_reflow,3.1.2,59.88926917353421,
NounExposure.xlsx,"In the first learning phase, you will be shown an image with a word beneath it. You will also hear the word read aloud. Please repeat the word out loud and then use the picture to figure out what the word might mean. Then, use the space bar to advance to the next trial.

Press space bar to start learning.",4,NounFCT.xlsx,"Now you will be quizzed on the vocabulary you have been introduced to. Use the left and right arrow keys to choose the image on the screen that corresponds to the word.

Press space bar to continue.",NounTest.xlsx,2,"Next, you will be asked to produce what you have learned so far. Type the text that describes the image in the text box. After you have submitted your answer, the correct answer will appear on the screen briefly.

A word bank of the vocabulary is provided for your reference.

Press space bar to continue.",1,"You just completed learning phase 1 of 3. You may take a short break.

Press space when you are ready to continue.",,,,CartoonStims/cowboy_r.jpg,audio/mook.wav,,,,,,,mook,"Wordbank

daki  falit
ludin  mook
pepo  sido ",,,,0,0,0,0,,,,,,,,,,,,,,,,,,,,,,,,,1,4,10,3,,,,,,,,,,,,,,,,,,,,,,,,,,,,,,,,,,,,,,,,,,,,,,,,,,,,,,,,,,,,,,,,,,,,,,,,,,,,,,,,,,,,,,,,,,,,,0101KH,2019_Jun_06_1200,negexp_reflow,3.1.2,59.88926917353421,
NounExposure.xlsx,"In the first learning phase, you will be shown an image with a word beneath it. You will also hear the word read aloud. Please repeat the word out loud and then use the picture to figure out what the word might mean. Then, use the space bar to advance to the next trial.

